Time (s),Gyroscope x (rad/s),Gyroscope y (rad/s),Gyroscope z (rad/s)
0.060686938,-0.0502421855926514,-0.184475868940353,-0.030084228143096
0.080243918,-0.123543858528137,-0.163707062602043,-0.072843536734581
0.099801678,-0.121100470423698,-0.134386390447617,-0.00198525353334844
0.119360324,-0.0587940476834774,-0.120947755873203,0.0664296373724937
0.138918032,0.00473406631499529,0.0195471122860909,0.0762031972408295
0.158475011,0.0352764278650284,0.268772780895233,0.0224486365914345
0.178032772,0.0474933758378029,0.19180603325367,0.0517693050205708
0.197591366,-0.0734543800354004,-0.119726061820984,0.181268930435181
0.217149074,-0.259151935577393,-0.211353152990341,0.432938009500504
0.236706053,-0.35077902674675,-0.0965138673782349,0.625965714454651
0.256263813,-0.33123192191124,0.120947755873203,0.575876235961914
0.275822407,-0.327566832304001,0.144159957766533,0.445154935121536
0.295380116,-0.35322242975235,0.0354291424155235,0.434159696102142
0.314937095,-0.212727561593056,-0.00855186209082604,0.464702039957047
0.334494855,0.0401632077991962,-0.0280989743769169,0.428051203489304
0.354053449,0.168441131711006,-0.0781884491443634,0.381626814603806
0.373611157,0.155002489686012,-0.0488677807152271,0.402395635843277
0.393168136,0.111021488904953,-0.0158820282667875,0.452485114336014
0.412725897,0.0511584579944611,-0.0488677807152271,0.381626814603806
0.432284491,-0.0148130459710956,-0.0403159186244011,0.259457379579544
0.451842199,-0.00381779531016946,0.0390942245721817,0.209367901086807
0.471399126,0.101247936487198,0.122169449925423,0.250905513763428
0.490956886,0.124460130929947,0.076966755092144,0.296108216047287
0.510515532,0.00106898276135325,-0.0293206684291363,0.276561111211777
0.530073188,-0.0783411636948586,-0.0329857505857945,0.210589587688446
0.549630168,0.0132859274744987,0.0195471122860909,0.170273676514626
0.569187928,0.179436385631561,0.0977355614304543,0.129957750439644
0.588746522,0.260068207979202,0.130721315741539,0.0725381150841713
0.60830423,0.213643833994865,0.0500894747674465,0.0419957488775253
0.627861157,0.13912045955658,-0.0305423624813557,0.0652079433202744
0.647418918,0.153780803084373,0.0354291424155235,0.13973131775856
0.666977511,0.295497357845306,0.142938256263733,0.197150945663452
0.68653522,0.411558330059052,0.125834539532661,0.206924512982368
0.706092147,0.371242433786392,0,0.206924512982368
0.725649907,0.207535356283188,-0.0794101431965828,0.222806543111801
0.745208501,0.0670404881238937,-0.00366508355364203,0.239910259842873
0.764766209,-0.000152711814735085,0.101400643587112,0.22524993121624
0.784323136,-0.0954448878765106,0.0280989743769169,0.178825542330742
0.803880897,-0.161416381597519,-0.1282779276371,0.161721810698509
0.823439491,-0.0844496339559555,-0.123391143977642,0.191042482852936
0.842997147,0.0658187940716744,0.0244338903576136,0.232580095529556
0.862554126,0.152559101581574,0.153933510184288,0.215476363897324
0.882111886,0.0841442123055458,0.124612838029861,0.164165198802948
0.901670428,-0.101553358137608,-0.0610847249627113,0.123849280178547
0.921228136,-0.228609591722488,-0.10628741979599,0.104302167892456
0.940785063,-0.189515367150307,0.0134386401623487,0.0859767496585846
0.960342824,-0.0771194696426392,0.0708582848310471,0.0554343871772289
0.979901418,0.00839914940297604,0,0.0163401644676924
0.999459126,0.0768140405416489,-0.0952921733260155,-0.0068720318377018
1.019016053,0.145228937268257,-0.0904053971171379,-0.0594048947095871
1.038573813,0.175771296024323,-0.0378725305199623,-0.122933007776737
1.058132355,0.109799794852734,-0.0268772803246975,-0.132706567645073
1.077690063,-0.11743538826704,-0.0794101431965828,-0.0618482865393162
1.097246991,-0.316571593284607,-0.205244675278664,-0.0337493121623993
1.116804751,-0.171189948916435,-0.251669079065323,-0.11804623156786
1.136363345,0.134233683347702,-0.10750912129879,-0.154697075486183
1.155921001,0.195318415760994,0.0134386401623487,-0.0862821787595749
1.175477928,0.00351237179711461,0.0171037241816521,-0.0386360883712769
1.195035688,-0.233496367931366,-0.00977355614304543,-0.111937761306763
1.214594282,-0.428967475891113,-0.118504367768765,-0.207229927182198
1.234151938,-0.508377611637116,-0.207688063383102,-0.180352658033371
1.253708918,-0.37521293759346,-0.163707062602043,-0.130263179540634
1.273266626,-0.0600157417356968,-0.0794101431965828,-0.206008240580559
1.29282522,0.197761803865433,-0.076966755092144,-0.292748540639877
1.312382876,0.250294655561447,-0.0500894747674465,-0.234107211232185
1.331939855,0.174549609422684,0.053754560649395,-0.163248926401138
1.351497563,0.0731489583849907,0.076966755092144,-0.175465881824493
1.371056157,-0.0612374395132065,-0.145381644368172,-0.188904508948326
1.390613813,-0.199288919568062,-0.257777541875839,-0.164470627903938
1.410170741,-0.255486875772476,-0.163707062602043,-0.121711313724518
1.429728501,-0.204175695776939,-0.113617591559887,-0.133928254246712
1.449287043,-0.112548604607582,-0.158820286393166,-0.191347897052765
1.468844751,-0.0600157417356968,-0.185697570443153,-0.1608055382967
1.488401678,-0.0123696569353342,-0.118504367768765,-0.030084228143096
1.507959386,0.0328330397605896,-0.0525328628718853,0.00656660785898566
1.52751798,0.0572669319808483,-0.0745233669877052,-0.119267925620079
1.547075636,0.081700824201107,-0.0671931952238083,-0.217003494501114
1.566632563,0.0597103200852871,-0.0598630309104919,-0.144923508167267
1.586190324,-0.0368035472929478,-0.083075225353241,0.0371089726686478
1.605748866,-0.0673459097743034,-0.0684148967266083,0.0737598091363907
1.625306574,0.00839914940297604,-0.113617591559887,-0.0459662564098835
1.644863501,0.130568608641624,-0.172258928418159,-0.125376403331757
1.664421209,0.163554355502129,-0.156376898288727,-0.0765086188912392
1.683979803,0.112243182957172,-0.0928487852215767,-0.0239757541567087
1.703537459,0.0462716780602932,-0.0109952501952648,-0.0642916709184647
1.723094386,-0.0013744062744081,0.0342074483633041,-0.143701821565628
1.742652095,0.0108425384387374,0.0219905003905296,-0.158362150192261
1.762210688,0.0377198196947575,0.0268772803246975,-0.0936123430728912
1.781768345,0.0267245676368475,0.123391143977642,-0.0264191441237927
1.801325272,-0.00503948982805014,0.218683317303658,-0.0313059203326702
1.82088298,-0.00259610079228878,0.167372152209282,-0.0948340371251106
1.840441574,0.0450499840080738,0.0745233669877052,-0.0838387832045555
1.85999923,0.0267245676368475,0.076966755092144,0.013896775431931
1.879556157,-0.103996746242046,0.0916270911693573,0.0835333615541458
1.899113866,-0.163859784603119,0.0879620015621185,0.0285571087151766
1.918672407,-0.0746760740876198,0.111174203455448,-0.0752869248390198
1.938230063,-0.0111479628831148,0.19302773475647,-0.154697075486183
1.957786991,-0.171189948916435,0.194249421358109,-0.232885524630547
1.977344751,-0.50349086523056,0.0134386401623487,-0.292748540639877
1.996903293,-0.646429121494293,-0.217461630702019,-0.296413630247116
2.016460949,-0.490052223205566,-0.361621588468552,-0.311073958873749
2.036017876,-0.317793279886246,-0.265107721090317,-0.227998733520508
2.055575584,-0.127208948135376,0.0806318372488022,-0.0410794764757156
2.075134126,-0.0331384651362896,0.31886225938797,0.128736063838005
2.094691782,-0.278699070215225,0.228456869721413,0.181268930435181
2.114248709,-0.687966704368591,-0.0952921733260155,0.0933069214224815
2.133806418,-0.852895498275757,-0.366508364677429,-0.0899472609162331
2.153365011,-0.540141701698303,-0.366508364677429,-0.195012986660004
2.172922668,0.0963611528277397,-0.0965138673782349,-0.100942507386208
2.192479543,0.636350154876709,0.221126705408096,0.0945286154747009
2.212037251,0.724312126636505,0.322527348995209,0.220363155007362
2.231595845,0.28694549202919,0.19302773475647,0.209367901086807
2.251153501,-0.300689578056335,0.0329857505857945,0.173938751220703
2.270710428,-0.576792538166046,-0.0733016729354858,0.191042482852936
2.290268084,-0.410642057657242,-0.166150450706482,0.233801782131195
2.309826678,-0.0649025216698647,-0.162485376000404,0.230136707425118
2.329384334,0.157445877790451,-0.0183254182338715,0.261900752782822
2.348941209,0.290610581636429,0.152711808681488,0.298551589250565
2.368498918,0.363912254571915,0.138051480054855,0.289999723434448
2.388057459,0.312601089477539,-0.152711808681488,0.227693319320679
2.407615116,0.211200445890427,-0.210131451487541,0.121405892074108
2.427172043,0.153780803084373,0.218683317303658,0.0322221927344799
2.446729751,0.156224191188812,0.366508364677429,-0.0251974500715733
2.466288293,0.162332653999329,-0.0488677807152271,-0.142480120062828
2.485845949,0.150115713477135,-0.288319915533066,-0.210895016789436
2.505402876,0.211200445890427,-0.0171037241816521,-0.113159455358982
2.524960532,0.350473612546921,0.34329617023468,0.049325916916132
2.544519126,0.301605820655823,0.250447362661362,0.0774248912930489
2.56407673,0.0157293174415827,0.0195471122860909,0.0358872748911381
2.583633657,-0.251821786165237,-0.0378725305199623,0.0566560849547386
2.603191366,-0.33367532491684,0.0342074483633041,0.0981936976313591
2.622749907,-0.218836024403572,0.0171037241816521,0.0798682793974876
2.642307563,-0.0734543800354004,-0.083075225353241,0.0529909990727901
2.661864438,-0.0355818532407284,-0.0305423624813557,0.120184198021889
2.681422147,-0.034360159188509,0.0500894747674465,0.195929259061813
2.700980688,-0.0160347409546375,-0.0806318372488022,0.106745555996895
2.720538345,0.103691324591637,-0.274881273508072,-0.0801737010478973
2.74009522,0.231969252228737,-0.262664318084717,-0.0899472609162331
2.759652928,0.207535356283188,-0.0720799788832665,0.0444391369819641
2.77921147,0.0242811776697636,0.0293206684291363,0.116519115865231
2.798769074,-0.211505860090256,-0.0500894747674465,0.063986249268055
2.818326001,-0.454623073339462,-0.112395897507668,0.0151184694841504
2.837883709,-0.537698328495026,-0.1270562261343,0.0334438867866993
2.857442199,-0.332453608512878,-0.1282779276371,0.000458135444205254
2.876999855,0.0413849018514156,-0.0928487852215767,-0.115602843463421
2.896556782,0.388346135616303,-0.0232121963053942,-0.227998733520508
2.916114438,0.515402376651764,0.0464243926107883,-0.281753301620483
2.93567298,0.295497357845306,0.0818535313010216,-0.251210927963257
2.955230636,-0.103996746242046,0.0598630309104919,-0.207229927182198
2.974787511,-0.317793279886246,0.00855186209082604,-0.219446882605553
2.99434522,-0.171189948916435,0.0146603342145681,-0.235328912734985
3.013903709,0.131790295243263,0.105065725743771,-0.177909269928932
3.033461366,0.310157686471939,0.206466376781464,-0.0618482865393162
3.053018241,0.239299416542053,0.21379654109478,0.0481042228639126
3.072575949,-0.0184781290590763,0.0549762547016144,0.0554343871772289
3.092134491,-0.235939756035805,-0.0904053971171379,-0.0264191441237927
3.111692095,-0.238383144140244,-0.109952509403229,-0.0679567605257034
3.13124897,-0.135760799050331,-0.135608091950417,-0.019088976085186
3.150806678,-0.128430634737015,-0.196692824363709,0.0481042228639126
3.17036522,-0.140647575259209,-0.197914510965347,0.057877779006958
3.189922824,-0.0282516852021217,-0.10628741979599,-0.0410794764757156
3.209479699,0.197761803865433,0.0806318372488022,-0.18157434463501
3.229037407,0.349251925945282,0.224791795015335,-0.241437375545502
3.248595897,0.261289924383163,0.139273181557655,-0.213338404893875
3.268153553,-0.0148130459710956,-0.0134386401623487,-0.213338404893875
3.287710428,-0.18096350133419,0.0280989743769169,-0.279309898614883
3.307268084,-0.108883522450924,0.232121959328651,-0.350168198347092
3.326826626,0.0316113457083702,0.248003989458084,-0.366050213575363
3.34638423,0.0707055702805519,-0.0842969194054604,-0.280531615018845
3.365941157,-0.0148130459710956,-0.262664318084717,-0.0435228683054447
3.385498813,-0.0416903272271156,0.108730815351009,0.15927842259407
3.405057355,-0.0148130459710956,0.40560257434845,0.182490617036819
3.424614959,-0.11865708231926,0.226013481616974,0.127514362335205
3.444171834,-0.24571330845356,-0.101400643587112,0.116519115865231
3.463729491,-0.200510606169701,-0.273659586906433,0.15805672109127
3.483288032,0.0511584579944611,-0.19302773475647,0.184934005141258
3.502845636,0.224639073014259,-0.0280989743769169,0.242353647947311
3.522402511,0.197761803865433,0.0855186134576798,0.37185326218605
3.54196022,-0.0600157417356968,0.219905018806458,0.472032219171524
3.561518709,-0.381321400403976,0.248003989458084,0.424386143684387
3.581076313,-0.380099713802338,0.103844031691551,0.281447887420654
3.600633188,-0.0453554093837738,-0.00977355614304543,0.166608586907387
3.620190897,0.206313654780388,0.00488677807152271,0.197150945663452
3.639749386,0.15988926589489,0.0745233669877052,0.313211917877197
3.659306991,-0.0221432130783796,0.162485376000404,0.321763783693314
3.678863866,-0.188293665647507,0.196692824363709,0.191042482852936
3.698421574,-0.295802772045136,0.1282779276371,0.0835333615541458
3.717980063,-0.220057725906372,0.00488677807152271,0.134844526648521
3.737537668,-0.0245866030454636,-0.0134386401623487,0.250905513763428
3.757094543,0.0755923464894295,0.0720799788832665,0.298551589250565
3.776652199,0.0780357345938683,0.0390942245721817,0.259457379579544
3.796210741,0.0597103200852871,-0.0965138673782349,0.186155706644058
3.815768345,0.109799794852734,-0.180810794234276,0.136066228151321
3.83532522,0.235634326934814,-0.135608091950417,0.125070974230766
3.854882876,0.333369880914688,-0.0219905003905296,0.128736063838005
3.874441366,0.296719044446945,0.0720799788832665,0.131179451942444
3.893999022,0.141563847661018,0.0464243926107883,0.126292675733566
3.913555845,-0.0221432130783796,-0.109952509403229,0.125070974230766
3.933113553,-0.0502421855926514,-0.249225676059723,0.13850961625576
3.952672043,0.0499367639422417,-0.224791795015335,0.178825542330742
3.972229647,0.0352764278650284,-0.0403159186244011,0.260679066181183
3.991786522,-0.172411635518074,0.114839285612106,0.292443126440048
4.011344178,-0.384986490011215,0.0207688063383102,0.232580095529556
4.030902668,-0.384986490011215,-0.199136212468147,0.13850961625576
4.050460272,-0.0697892978787422,-0.2541124522686,-0.00198525353334844
4.070017147,0.344365149736404,-0.0696365907788277,-0.0691784545779228
4.089574803,0.581373870372772,0.0708582848310471,-0.0239757541567087
4.109133293,0.648567080497742,-0.0146603342145681,-0.00442864280194044
4.128690897,0.669335901737213,-0.206466376781464,-0.066735066473484
4.148247772,0.558161675930023,-0.296871781349182,-0.151031985878944
4.167805428,0.261289924383163,-0.293206691741943,-0.180352658033371
4.187363918,-0.152864530682564,-0.388498842716217,-0.153475373983383
4.206921522,-0.65253758430481,-0.519220173358917,-0.1620272397995
4.226478397,-1.174201130867,-0.615734040737152,-0.177909269928932
4.246036053,-1.45030415058136,-0.607182204723358,-0.185239434242249
4.265594543,-1.14365875720978,-0.428814768791199,-0.232885524630547
4.285152147,-0.213949248194695,-0.23334364593029,-0.318404138088226
4.304709022,0.73408567905426,-0.0232121963053942,-0.334286153316498
4.324266678,1.16045713424683,0.327414125204086,-0.284196674823761
4.343825168,1.2410888671875,0.570531368255615,-0.298857033252716
4.363382772,1.24719738960266,0.547319173812866,-0.430800020694733
4.382939595,1.22520685195923,0.459357142448425,-0.555412888526917
4.402497251,0.980867981910706,0.537545561790466,-0.467450857162476
4.422055741,0.515402376651764,0.631616055965424,-0.257319420576096
4.441613345,0.0328330397605896,0.493564575910568,-0.186461120843887
4.46117022,-0.354444116353989,0.216239929199219,-0.170579090714455
4.480727876,-0.617108464241028,0.0855186134576798,-0.114381149411201
4.500286366,-0.745386362075806,0.157598599791527,-0.133928254246712
4.51984397,-0.665976226329804,0.0745233669877052,-0.184017732739449
4.539400793,-0.400868505239487,-0.152711808681488,-0.186461120843887
4.558958449,-0.149199441075325,-0.223570093512535,-0.105829291045666
4.578516938,-0.00992626789957285,-0.0928487852215767,-0.00198525353334844
4.598074543,0.145228937268257,0.0171037241816521,0.0615428611636162
4.617631366,0.304049223661423,-0.1270562261343,0.0749815031886101
4.637189022,0.284502118825913,-0.197914510965347,0.0590994730591774
4.656747511,0.162332653999329,0.00366508355364203,0.081089973449707
4.676305116,0.1806580722332,0.178367406129837,0.166608586907387
4.695861991,0.244186192750931,-0.0195471122860909,0.161721810698509
4.715419595,0.125681817531586,-0.223570093512535,0.0261137206107378
4.734978084,-0.105218440294266,-0.0891837030649185,-0.019088976085186
4.754535688,-0.193180441856384,0.0659715011715889,0.0334438867866993
4.774092563,-0.0881147161126137,0.0171037241816521,0.0664296373724937
4.793650168,0.0511584579944611,-0.0916270911693573,0.0407740548253059
4.813208657,0.13912045955658,0.0415376126766205,0.0151184694841504
4.832766261,0.236856028437614,0.200357899069786,0.0151184694841504
4.852323136,0.234412640333176,0.0378725305199623,0.013896775431931
4.871880741,0.0792574286460877,-0.102622337639332,0.0676513314247131
4.89143923,-0.209062471985817,0.180810794234276,0.285112947225571
4.910996834,-0.683079957962036,0.597408592700958,0.534338653087616
4.930553657,-0.81746631860733,0.354291409254074,0.485470861196518
4.950111313,-0.337340384721756,-0.227235183119774,0.166608586907387
4.969669803,0.165997743606567,-0.378725290298462,-0.0435228683054447
4.989227407,0.360247164964676,-0.0940704792737961,0.0481042228639126
5.00878423,0.239299416542053,0.197914510965347,0.253348886966705
5.028341886,-0.129652336239815,0.166150450706482,0.331537336111069
5.047900376,-0.433854252099991,-0.0684148967266083,0.254570603370667
5.067457928,-0.43751934170723,-0.0928487852215767,0.151948258280754
5.087014803,-0.24571330845356,0.114839285612106,0.104302167892456
5.106572407,-0.0612374395132065,0.309088706970215,0.049325916916132
5.126130897,0.0242811776697636,0.394607335329056,-0.0508530326187611
5.145688501,-0.0416903272271156,0.300536841154099,-0.124154701828957
5.165245324,-0.17974179983139,0.0586413368582726,-0.188904508948326
5.18480298,-0.202954009175301,-0.112395897507668,-0.282974988222122
5.204361418,-0.0539072714745998,-0.0891837030649185,-0.315960735082626
5.223919022,0.115908265113831,-0.0403159186244011,-0.246324151754379
5.243475845,0.128125205636024,-0.0684148967266083,-0.143701821565628
5.263033501,-0.000152711814735085,-0.142938256263733,-0.119267925620079
5.282591991,-0.0856713280081749,-0.14904673397541,-0.153475373983383
5.302149543,-0.0612374395132065,-0.0965138673782349,-0.102164201438427
5.321706418,-0.0148130459710956,-0.0757450610399246,0.0823116675019264
5.341264022,-0.0551289655268192,-0.0329857505857945,0.293664813041687
5.360822511,-0.162638083100319,0.00610847258940339,0.324207186698914
5.380380063,-0.190737053751946,-0.0647498071193695,0.165386900305748
5.399936938,-0.0746760740876198,-0.205244675278664,0.00900999736040831
5.419494543,0.0963611528277397,-0.19302773475647,0.0236703306436539
5.439053032,0.26739838719368,0.0525328628718853,0.127514362335205
5.458610584,0.344365149736404,0.230900257825851,0.154391646385193
5.478167459,0.162332653999329,0.145381644368172,-0.00565033731982112
5.497725063,-0.116213694214821,-0.0390942245721817,-0.18279604613781
5.517283553,-0.284807533025742,-0.0904053971171379,-0.135149955749512
5.536841105,-0.264038741588593,0.0415376126766205,0.00656660785898566
5.556397928,-0.231052979826927,0.122169449925423,0.0114533863961697
5.575955584,-0.261595338582993,-0.119726061820984,-0.168135702610016
5.595514022,-0.124765552580357,-0.342074453830719,-0.355054974555969
5.615071626,0.198983490467072,-0.2541124522686,-0.352611571550369
5.634628449,0.365133941173553,-0.0757450610399246,-0.18279604613781
5.654186053,0.170884519815445,-0.0158820282667875,-0.196234688162804
5.673744543,0.00717745535075665,0.289541602134705,-0.363606840372086
5.693302095,0.20142687857151,0.461800515651703,-0.24510246515274
5.712858918,0.464091211557388,0.249225676059723,0.13850961625576
5.732416574,0.431105464696884,0.0842969194054604,0.358414620161057
5.751975063,0.175771296024323,0.0195471122860909,0.320542097091675
5.771532616,-0.0172564350068569,-0.0989572554826737,0.208146199584007
5.791089438,-0.0612374395132065,-0.178367406129837,0.131179451942444
5.810647043,-0.0319167710840702,-0.076966755092144,0.116519115865231
5.830205532,0.0316113457083702,0.108730815351009,0.16050012409687
5.849763084,0.0487150698900223,0.076966755092144,0.140953004360199
5.869319907,-0.0160347409546375,-0.1282779276371,0.00778830237686634
5.888877511,-0.023364907130599,-0.19180603325367,-0.109494373202324
5.908436001,0.0975828468799591,-0.0366508364677429,-0.126598089933395
5.927993553,0.194096714258194,0.0415376126766205,-0.0997208133339882
5.947550376,0.109799794852734,-0.0916270911693573,-0.0875038728117943
5.96710798,-0.00381779531016946,-0.139273181557655,-0.0496313385665417
5.98666647,0.0328330397605896,0.0146603342145681,0.0285571087151766
6.006224022,0.0926960706710815,0.0684148967266083,0.0749815031886101
6.025780845,0.0621537081897259,-0.0183254182338715,0.0676513314247131
6.045338449,-0.00626118434593082,-0.0757450610399246,0.0566560849547386
6.064896938,-0.0172564350068569,-0.0195471122860909,0.0664296373724937
6.084454491,0.0230594836175442,0.00733016710728407,0.0627645552158356
6.104011313,0.0536018460988998,-0.0794101431965828,0.0627645552158356
6.123568918,-0.00503948982805014,-0.123391143977642,0.081089973449707
6.143127407,-0.00503948982805014,-0.0195471122860909,0.0590994730591774
6.162684959,0.0890309885144234,0.100178949534893,0.0725381150841713
6.182241782,-0.0368035472929478,0.0696365907788277,0.198372647166252
6.201799386,-0.58534437417984,0.194249421358109,0.275339394807816
6.221357824,-1.11189472675323,0.306645333766937,0.200816035270691
6.240915376,-0.868777513504028,-0.0146603342145681,0.0163401644676924
6.260472199,-0.0514638833701611,-0.169815540313721,-0.135149955749512
6.280029803,0.578930497169495,0.0635281130671501,-0.174244180321693
6.299588293,0.708430111408234,0.188140958547592,-0.0972774252295494
6.319145845,0.428662061691284,0.183254182338715,-0.00809372588992119
6.338702668,0.113464877009392,0.229678571224213,0.049325916916132
6.358260272,-0.0380252413451672,0.2541124522686,0.0627645552158356
6.377818709,-0.0612374395132065,0.135608091950417,0.0700947195291519
6.397376261,-0.023364907130599,-0.0354291424155235,0.0884201377630234
6.416933084,0.0597103200852871,0.0317640565335751,0.111632339656353
6.436490688,0.0731489583849907,0.180810794234276,0.156835034489632
6.456049178,-0.042912021279335,0.179589092731476,0.151948258280754
6.47560673,-0.151642829179764,0.0989572554826737,0.0700947195291519
6.495163553,-0.0917797982692719,0.0977355614304543,-0.0105371149256825
6.514721157,0.0462716780602932,0.124612838029861,-0.0435228683054447
6.534279595,0.0865876004099846,0.123391143977642,-0.0569615066051483
6.553837147,0.0621537081897259,0.0891837030649185,-0.110716067254543
6.57339397,0.0352764278650284,0.0549762547016144,-0.165692314505577
6.592951574,0.0523801520466805,0.0745233669877052,-0.179130956530571
6.612510011,0.0694838762283325,0.123391143977642,-0.157140463590622
6.632067563,0.0291679557412863,0.0989572554826737,-0.129041478037834
6.651624386,-0.0319167710840702,0.0842969194054604,-0.0777303129434586
6.671181991,-0.0526855774223805,0.130721315741539,-0.0471879504621029
6.690740428,-0.0453554093837738,0.175924003124237,-0.0581832006573677
6.71029798,0.00229067727923393,0.146603345870972,-0.0178672820329666
6.729854803,0.0658187940716744,0.0818535313010216,0.0200052484869957
6.749412407,-0.0013744062744081,0.00610847258940339,-0.027640838176012
6.768970845,-0.119878776371479,-0.0342074483633041,-0.09605573117733
6.788528397,-0.0453554093837738,-0.0195471122860909,-0.09605573117733
6.80808522,0.208757057785988,0.0146603342145681,-0.0423011742532253
6.827642824,0.316266179084778,-0.00488677807152271,-0.0166455879807472
6.847201261,0.107356406748295,-0.0647498071193695,-0.0618482865393162
6.866758813,-0.326345145702362,0.0561979487538338,-0.142480120062828
6.886315636,-0.706292152404785,0.0549762547016144,-0.1608055382967
6.905873241,-0.741721272468567,-0.173480615019798,-0.20356485247612
6.925431678,-0.327566832304001,-0.262664318084717,-0.328177690505981
6.94498923,0.310157686471939,-0.210131451487541,-0.433243423700333
6.964546053,0.665670812129974,-0.290763288736343,-0.463785767555237
6.984103605,0.530062735080719,-0.348182946443558,-0.425913244485855
7.003662095,0.156224191188812,-0.119726061820984,-0.284196674823761
7.023219595,-0.0954448878765106,0.0232121963053942,-0.133928254246712
7.042776418,-0.0844496339559555,-0.0977355614304543,-0.0679567605257034
7.062334022,0.0291679557412863,-0.172258928418159,-0.0398577824234962
7.081892459,0.100026234984398,-0.0195471122860909,0.0664296373724937
7.101450011,0.134233683347702,0.1282779276371,0.237466871738434
7.121006782,0.104913018643856,0.133164703845978,0.340089201927185
7.140564386,-0.0209215190261602,0.0122169451788068,0.279004484415054
7.160122824,-0.128430634737015,0.00244338903576136,0.164165198802948
7.179680376,-0.057572353631258,-0.0158820282667875,0.104302167892456
7.199237199,0.0633754059672356,-0.0500894747674465,0.0933069214224815
7.218794803,0.0780357345938683,-0.076966755092144,0.0358872748911381
7.238353241,0.0157293174415827,-0.109952509403229,-0.0532964244484901
7.257910741,-0.0135913519188762,-0.136829793453217,-0.0862821787595749
7.277467563,0.0352764278650284,-0.0684148967266083,-0.0337493121623993
7.297025168,0.0951394587755203,0.0268772803246975,0.0285571087151766
7.316583605,0.0682621821761131,-0.00488677807152271,0.0212269425392151
7.336141157,0.0120642334222794,-0.109952509403229,-0.00442864280194044
7.355697928,0.0352764278650284,-0.0891837030649185,0.0383306667208672
7.375255532,0.128125205636024,0.0329857505857945,0.114075727760792
7.39481397,0.129346907138824,-0.0439810007810593,0.16050012409687
7.414371522,0.0206160955131054,-0.101400643587112,0.183712318539619
7.433928293,-0.00992626789957285,-0.00977355614304543,0.187377393245697
7.453485897,0.0511584579944611,0.0806318372488022,0.162943512201309
7.473044334,0.0511584579944611,-0.0244338903576136,0.120184198021889
7.492601834,-0.00626118434593082,0.00244338903576136,0.0700947195291519
7.512158657,-0.0184781290590763,0.266329407691956,0.172717064619064
7.531716209,-0.154086217284203,0.316418886184692,0.41949936747551
7.551274647,-0.444849520921707,0.179589092731476,0.570989489555359
7.570832199,-0.723395884037018,0.158820286393166,0.557550847530365
7.590389022,-0.741721272468567,0.0378725305199623,0.459815263748169
7.609946574,-0.299467861652374,-0.160041987895966,0.337645828723907
7.629505011,0.277171939611435,-0.168593838810921,0.243575349450111
7.649062563,0.454317659139633,-0.0671931952238083,0.202037736773491
7.668619334,0.141563847661018,-0.00122169451788068,0.202037736773491
7.688176938,-0.261595338582993,0.0146603342145681,0.215476363897324
7.707735376,-0.362995982170105,0.0158820282667875,0.206924512982368
7.727292876,-0.204175695776939,0.0280989743769169,0.22402822971344
7.746849699,0.00595576083287597,0.140494868159294,0.298551589250565
7.766407251,0.100026234984398,0.239452123641968,0.365744799375534
7.785965688,-0.00381779531016946,0.10628741979599,0.277782797813416
7.805523241,-0.168746560811996,-0.00244338903576136,0.0957503095269203
7.825080011,-0.150421142578125,0.0427593067288399,0.0273354146629572
7.844637563,0.0963611528277397,-0.0476460866630077,0.049325916916132
7.864196001,0.326039731502533,-0.155155196785927,0.0419957488775253
7.883753553,0.335813283920288,-0.131943002343178,0.00900999736040831
7.903310324,0.230747550725937,-0.0415376126766205,0.00656660785898566
7.922867928,0.150115713477135,-0.0525328628718853,0.0334438867866993
7.942426313,0.165997743606567,-0.166150450706482,0.0823116675019264
7.961983866,0.288167208433151,-0.228456869721413,0.170273676514626
7.981540636,0.434770524501801,-0.184475868940353,0.253348886966705
8.001098241,0.475086450576782,-0.0671931952238083,0.279004484415054
8.020656626,0.39567631483078,-0.0720799788832665,0.264344155788422
8.040214178,0.324818015098572,-0.122169449925423,0.291221439838409
8.059770949,0.315044462680817,-0.0561979487538338,0.376740038394928
8.079328553,0.266176700592041,0.0647498071193695,0.440268158912659
8.098886938,0.189209938049316,0.125834539532661,0.468367129564285
8.118444491,0.147672325372696,0.123391143977642,0.450041711330414
8.138001261,0.0132859274744987,0.0134386401623487,0.432938009500504
8.157558813,-0.251821786165237,-0.0708582848310471,0.525786757469177
8.177117251,-0.424080699682236,-0.0378725305199623,0.696824014186859
8.196674751,-0.43996274471283,-0.0623064190149307,0.611305415630341
8.216231574,-0.211505860090256,-0.291984975337982,0.186155706644058
8.235789126,0.150115713477135,-0.304201930761337,-0.107050985097885
8.255347563,0.3089359998703,0.138051480054855,0.0688730254769325
8.274905063,0.113464877009392,0.2541124522686,0.388956993818283
8.294461834,-0.167524859309196,-0.23578704893589,0.425607830286026
8.314019438,-0.0331384651362896,-0.497229665517807,0.209367901086807
8.333577824,0.37612920999527,-0.294428378343582,0.101858779788017
8.353135376,0.591147422790527,0.00488677807152271,0.239910259842873
8.372692147,0.423775285482407,0.0659715011715889,0.490357637405396
8.392249699,0.009620844386518,-0.0720799788832665,0.645512819290161
8.411808136,-0.326345145702362,-0.102622337639332,0.641847729682922
8.431365636,-0.358109205961227,0.0244338903576136,0.558772504329681
8.450922407,-0.239604830741882,0.14904673397541,0.516013205051422
8.470479959,-0.112548604607582,0.164928764104843,0.553885757923126
8.490038397,-0.0368035472929478,0.0904053971171379,0.58687150478363
8.509595897,-0.00626118434593082,0.0390942245721817,0.538003742694855
8.529152668,0.0303896516561508,0.0855186134576798,0.452485114336014
8.548710272,0.0511584579944611,0.179589092731476,0.415834277868271
8.568268657,-0.00992626789957285,0.202801287174225,0.442711561918259
8.587826157,-0.125987246632576,0.131943002343178,0.491579324007034
8.607382928,-0.183406889438629,0.0574196428060532,0.520900011062622
8.626940532,-0.134539112448692,0.0525328628718853,0.518456637859345
8.646498918,-0.0453554093837738,0.105065725743771,0.529451847076416
8.666056418,-0.0123696569353342,0.0928487852215767,0.551442384719849
8.685613188,0.009620844386518,0.0134386401623487,0.570989489555359
8.705170793,0.0523801520466805,-0.0109952501952648,0.597866773605347
8.724729178,0.0157293174415827,-0.0317640565335751,0.622300624847412
8.744286678,-0.0685676038265228,-0.0696365907788277,0.645512819290161
8.763843449,-0.0978882759809494,-0.10750912129879,0.683385372161865
8.783401001,-0.057572353631258,-0.0794101431965828,0.734696567058563
8.802959438,0.0132859274744987,-0.0574196428060532,0.786007702350617
8.822516938,0.0829225182533264,-0.113617591559887,0.888630032539368
8.842073709,0.0890309885144234,-0.255334168672562,1.02179479598999
8.861631261,0.0364981219172478,-0.36284327507019,1.06333231925964
8.881189647,0.106134712696075,-0.140494868159294,0.904512107372284
8.900747199,0.341921746730804,0.29931515455246,0.820215165615082
8.92030397,0.512959003448486,0.296871781349182,0.887408375740051
8.939861522,0.530062735080719,0.0403159186244011,0.961931705474854
8.959419907,0.478751540184021,0.0244338903576136,0.950936496257782
8.978977407,0.0926960706710815,0.269994497299194,0.873969733715057
8.998534178,-0.518151164054871,0.574196398258209,0.812884986400604
9.01809173,-0.943300902843475,0.371395140886307,0.89107346534729
9.037650116,-0.893211424350739,-0.248003989458084,1.00835609436035
9.057207616,-0.364217668771744,-0.412932753562927,1.02179479598999
9.076764386,0.26495498418808,-0.0867403075098991,0.988808989524841
9.096321938,0.582595586776733,0.0500894747674465,0.921615779399872
9.115880376,0.450652569532394,-0.116060979664326,0.859309375286102
9.135437876,0.0389415137469769,-0.174702316522598,0.884964942932129
9.154994647,-0.316571593284607,-0.00244338903576136,0.943606317043304
9.174552147,-0.406976997852325,0.0794101431965828,0.858087658882141
9.194110584,-0.290915995836258,0.0378725305199623,0.660173177719116
9.213668084,-0.0893364101648331,0.00122169451788068,0.575876235961914
9.233224803,0.0707055702805519,-0.0610847249627113,0.6540647149086
9.252782407,0.142785549163818,-0.0745233669877052,0.727366387844086
9.272340793,0.135455384850502,-0.0610847249627113,0.706597566604614
9.291898293,0.107356406748295,-0.0561979487538338,0.638182699680328
9.311455011,0.111021488904953,-0.0940704792737961,0.577097952365875
9.331012563,0.100026234984398,-0.157598599791527,0.555107474327087
9.350571001,0.0548235401511192,-0.190584346652031,0.601531863212585
9.370128501,-0.0306950751692057,-0.190584346652031,0.651621341705322
9.38968522,-0.129652336239815,-0.174702316522598,0.667503356933594
9.409242772,-0.151642829179764,-0.180810794234276,0.652842998504639
9.428801157,-0.0942231863737106,-0.190584346652031,0.658951461315155
9.448358657,-0.0135913519188762,-0.21501824259758,0.713927745819092
9.467915428,0.0303896516561508,-0.195471122860909,0.787229418754578
9.48747298,0.0694838762283325,-0.160041987895966,0.806776523590088
9.507031366,0.144007235765457,-0.0916270911693573,0.772569060325623
9.526588866,0.184323161840439,-0.0354291424155235,0.711484372615814
9.546145636,0.174549609422684,-0.0317640565335751,0.667503356933594
9.565703136,0.147672325372696,-0.0268772803246975,0.682163655757904
9.585261574,0.137898772954941,-0.0158820282667875,0.717592835426331
9.604819022,0.229525864124298,0.00244338903576136,0.751800239086151
9.624375793,0.268620073795319,0.116060979664326,0.834875464439392
9.643933345,0.087809294462204,0.197914510965347,0.892295122146606
9.66349173,-0.217614337801933,0.141716569662094,0.876413106918335
9.68304923,-0.279920756816864,-0.0122169451788068,0.818993449211121
9.702605949,0.0389415137469769,-0.131943002343178,0.721257925033569
9.722163501,0.471421360969543,-0.0916270911693573,0.623522341251373
9.741721886,0.782953500747681,0.0415376126766205,0.574654579162598
9.761279386,0.853811740875244,0.19180603325367,0.614970505237579
9.780836157,0.721868753433228,0.257777541875839,0.721257925033569
9.800393657,0.553274929523468,0.261442631483078,0.86175274848938
9.819952043,0.340700060129166,0.255334168672562,1.02545988559723
9.839509543,-0.0514638833701611,0.248003989458084,1.18428015708923
9.859066313,-0.58534437417984,0.21501824259758,1.30644953250885
9.878623866,-0.900541543960571,-0.0415376126766205,1.31988823413849
9.898182251,-0.65253758430481,-0.337187677621841,1.16351127624512
9.917739699,-0.0368035472929478,-0.200357899069786,1.02668154239655
9.93729647,0.378572583198547,0.182032480835915,1.0694408416748
9.95685397,0.333369880914688,0.300536841154099,1.17572832107544
9.976412407,-0.0331384651362896,0.144159957766533,1.18916690349579
9.995969855,-0.381321400403976,-0.0708582848310471,1.12319540977478
10.015526626,-0.455844759941101,-0.140494868159294,1.06211066246033
10.035084126,-0.289694309234619,-0.0134386401623487,1.08165776729584
10.054642511,-0.00748287886381149,0.109952509403229,1.15862452983856
10.074200011,0.108578100800514,0.0806318372488022,1.19527542591095
10.09375673,0.00595576083287597,0.00366508355364203,1.18183672428131
10.113314282,-0.166303172707558,-0.0427593067288399,1.13907742500305
10.132872668,-0.238383144140244,-0.0574196428060532,1.05722391605377
10.152430168,-0.13942588865757,-0.0806318372488022,0.95337986946106
10.171986886,0.0108425384387374,-0.0965138673782349,0.915507316589356
10.191544438,0.042606595903635,-0.0818535313010216,0.99247407913208
10.211102824,-0.0013744062744081,0.0329857505857945,1.08165776729584
10.230660272,-0.0245866030454636,0.14782503247261,1.05478048324585
10.250217043,0.0279462616890669,0.119726061820984,0.95337986946106
10.269774543,0.14034216105938,0.045202698558569,0.958266615867615
10.289332928,0.312601089477539,0.1270562261343,1.09509646892548
10.308890428,0.424996972084045,0.306645333766937,1.28445911407471
10.328447147,0.361468851566315,0.415376126766205,1.40296339988709
10.348004699,0.0731489583849907,0.510668337345123,1.36386919021606
10.367563084,-0.400868505239487,0.329857528209686,1.19283199310303
10.387120532,-0.612221658229828,-0.0745233669877052,0.990030705928803
10.406677303,-0.400868505239487,-0.232121959328651,0.843427360057831
10.426234803,0.0633754059672356,-0.0635281130671501,0.809219896793366
10.445793188,0.528841018676758,0.141716569662094,0.838540554046631
10.465350688,0.688883006572723,0.175924003124237,0.843427360057831
10.484907407,0.511737287044525,0.0794101431965828,0.822658538818359
10.504464959,0.183101460337639,-0.045202698558569,0.795781254768372
10.524023345,-0.116213694214821,-0.123391143977642,0.789672791957855
10.543580793,-0.297024488449097,-0.206466376781464,0.820215165615082
10.563137511,-0.356887519359589,-0.262664318084717,0.867861270904541
10.582695063,-0.317793279886246,-0.221126705408096,0.880078196525574
10.602253449,-0.206619083881378,-0.100178949534893,0.871526300907135
10.621810897,-0.0697892978787422,-0.025655584409833,0.838540554046631
10.641367616,-0.0111479628831148,-0.00855186209082604,0.832432091236115
10.660925168,-0.0221432130783796,-0.00366508355364203,0.862974464893341
10.680483553,-0.0306950751692057,0.0329857505857945,0.88129985332489
10.700041001,-0.0355818532407284,0.10750912129879,0.854422628879547
10.719597772,-0.0783411636948586,0.150268420577049,0.816550076007843
10.739155272,-0.146756052970886,0.108730815351009,0.776234149932861
10.758713657,-0.162638083100319,0.0366508364677429,0.710262656211853
10.778271105,-0.0600157417356968,-0.0207688063383102,0.656508088111877
10.797827824,0.112243182957172,-0.00366508355364203,0.691937208175659
10.817385376,0.261289924383163,0.0879620015621185,0.811663269996643
10.836943761,0.318709552288055,0.168593838810921,0.913063943386078
10.856501209,0.24785128235817,0.114839285612106,0.919172406196594
10.876057928,0.0963611528277397,-0.0794101431965828,0.882521569728851
10.89561548,-0.057572353631258,-0.138051480054855,0.834875464439392
10.915173813,-0.143090963363647,-0.0146603342145681,0.776234149932861
10.934731313,-0.187071979045868,0.10750912129879,0.69804573059082
10.954288032,-0.204175695776939,0.175924003124237,0.58198469877243
10.973845532,-0.136982500553131,0.199136212468147,0.412169188261032
10.993403918,0.0267245676368475,0.0965138673782349,0.274117708206177
11.012961366,0.122016742825508,0.00855186209082604,0.343754291534424
11.032518136,0.0560452342033386,0.0623064190149307,0.645512819290161
11.052075636,0.0719272643327713,0.116060979664326,0.897181928157806
11.071634022,0.316266179084778,0.0745233669877052,0.851979196071625
11.09119147,0.525175929069519,-0.0317640565335751,0.695602297782898
11.110748188,0.619246423244476,-0.0794101431965828,0.671168446540833
11.130305688,0.620468080043793,0.0183254182338715,0.753021955490112
11.149864074,0.435992240905762,0.151490122079849,0.843427360057831
11.169421522,0.0523801520466805,0.0904053971171379,0.843427360057831
11.188978293,-0.287250936031342,-0.0464243926107883,0.748135209083557
11.208535793,-0.28847262263298,-0.118504367768765,0.655286371707916
11.228094178,-0.0649025216698647,-0.101400643587112,0.646734535694122
11.247651626,0.0474933758378029,-0.0305423624813557,0.727366387844086
11.267208345,-0.057572353631258,-0.045202698558569,0.806776523590088
11.286765845,-0.250600099563599,-0.145381644368172,0.805554807186127
11.30632423,-0.381321400403976,-0.274881273508072,0.722479581832886
11.325881678,-0.431410878896713,-0.368951737880707,0.630852520465851
11.345438397,-0.388651579618454,-0.30175855755806,0.671168446540833
11.364995897,-0.235939756035805,-0.0928487852215767,0.79944634437561
11.384554282,-0.0636808276176453,-0.0855186134576798,0.80433315038681
11.40411173,-0.198067218065262,-0.53143709897995,0.522121667861939
11.423668449,-0.606113195419312,-0.878398358821869,0.175160452723503
11.443226001,-0.59023118019104,-0.205244675278664,0.369409888982773
11.462784334,0.080479122698307,0.691479086875916,0.922837495803833
11.482341782,0.647345364093781,0.76844584941864,1.03889846801758
11.501898501,0.532506108283997,0.269994497299194,0.728588044643402
11.521456053,0.00229067727923393,-0.0806318372488022,0.475697308778763
11.541014386,-0.373991221189499,-0.118504367768765,0.501352906227112
11.560571834,-0.397203415632248,0.0232121963053942,0.711484372615814
11.580128553,-0.182185187935829,0.113617591559887,0.86663955450058
11.599686105,0.009620844386518,0.10750912129879,0.88129985332489
11.619244438,0.0914743766188622,0.0488677807152271,0.820215165615082
11.638801886,0.144007235765457,-0.0207688063383102,0.767682313919067
11.658358605,0.24540787935257,-0.0623064190149307,0.751800239086151
11.677916105,0.416445106267929,0.00977355614304543,0.751800239086151
11.697474491,0.466534584760666,0.0806318372488022,0.790894508361816
11.717031938,0.194096714258194,0.0195471122860909,0.801889717578888
11.736588657,-0.18096350133419,-0.0476460866630077,0.711484372615814
11.756146157,-0.177298411726952,-0.0928487852215767,0.530673563480377
11.775704491,0.24785128235817,-0.00733016710728407,0.473253905773163
11.795261991,0.602142691612244,0.183254182338715,0.54289048910141
11.814818657,0.589925765991211,0.269994497299194,0.56732439994812
11.834376209,0.285723805427551,0.251669079065323,0.505017995834351
11.853934543,-0.116213694214821,0.217461630702019,0.443933248519897
11.873491991,-0.388651579618454,0.103844031691551,0.492801040410996
11.893048709,-0.410642057657242,-0.0280989743769169,0.617413878440857
11.912606209,-0.210284173488617,-0.0390942245721817,0.711484372615814
11.932164543,-0.0135913519188762,0.0965138673782349,0.715149402618408
11.951721991,-0.00503948982805014,0.183254182338715,0.666281640529633
11.971278709,-0.154086217284203,0.123391143977642,0.605196893215179
11.990836209,-0.272590577602387,0.0684148967266083,0.536782026290894
12.010394595,-0.260373651981354,0.0818535313010216,0.465923756361008
12.029952043,-0.182185187935829,0.122169449925423,0.384070217609406
12.049508761,-0.107661828398705,0.119726061820984,0.322985500097275
12.069066261,-0.0502421855926514,0.14782503247261,0.335202425718308
12.088624595,-0.00626118434593082,0.239452123641968,0.388956993818283
12.108182043,-0.0221432130783796,0.295650064945221,0.384070217609406
12.127738761,-0.0917797982692719,0.202801287174225,0.311990231275558
12.147296261,-0.150421142578125,0.0623064190149307,0.24479703605175
12.166854595,-0.125987246632576,0.0122169451788068,0.253348886966705
12.186412043,-0.0697892978787422,0.0171037241816521,0.343754291534424
12.205968761,-0.0636808276176453,-0.0293206684291363,0.435381382703781
12.225526261,-0.108883522450924,-0.101400643587112,0.435381382703781
12.245084595,-0.123543858528137,-0.103844031691551,0.296108216047287
12.264642043,-0.0453554093837738,-0.0574196428060532,0.142174705862999
12.284198761,0.0682621821761131,-0.109952509403229,0.111632339656353
12.303756261,0.114686571061611,-0.250447362661362,0.193485870957375
12.323314595,0.087809294462204,-0.194249421358109,0.239910259842873
12.342872043,0.148894011974335,-0.00977355614304543,0.161721810698509
12.362428761,0.327261418104172,0.0280989743769169,0.00167983002029359
12.381986261,0.504407107830048,-0.142938256263733,-0.102164201438427
12.401544595,0.698656558990479,-0.205244675278664,-0.0997208133339882
12.421102043,0.819604337215424,-0.0867403075098991,0.0358872748911381
12.440658761,0.756076216697693,0.116060979664326,0.260679066181183
12.460216261,0.495855271816254,0.180810794234276,0.316877007484436
12.479774595,0.080479122698307,0.0195471122860909,0.127514362335205
12.499332043,-0.22616620361805,-0.186919257044792,-0.131484866142273
12.518888709,-0.292137712240219,-0.217461630702019,-0.22311195731163
12.538446209,-0.174855023622513,-0.0610847249627113,-0.119267925620079
12.558004543,-0.000152711814735085,0.0904053971171379,0.0566560849547386
12.577561991,0.153780803084373,0.0855186134576798,0.164165198802948
12.597118709,0.26495498418808,0.0342074483633041,0.15927842259407
12.616676209,0.316266179084778,0.0561979487538338,0.132401138544083
12.636234543,0.263733297586441,0.0733016729354858,0.161721810698509
12.655791991,0.109799794852734,-0.0293206684291363,0.226471617817879
12.675348657,-0.0905581042170525,-0.146603345870972,0.20325942337513
12.694906157,-0.167524859309196,-0.142938256263733,0.0896418318152428
12.714464491,-0.0905581042170525,-0.0317640565335751,-0.00320694805122912
12.734021938,-0.0734543800354004,0.0623064190149307,-0.0154238929972053
12.753578657,-0.220057725906372,0.00122169451788068,-0.0215323660522699
12.773136157,-0.279920756816864,-0.0818535313010216,-0.0117588099092245
12.792694491,-0.125987246632576,-0.00977355614304543,0.057877779006958
12.812251938,-0.0135913519188762,0.125834539532661,0.127514362335205
12.831808605,-0.0881147161126137,0.135608091950417,0.133622840046883
12.851366105,-0.300689578056335,-0.00977355614304543,0.0762031972408295
12.870924438,-0.483943730592728,-0.158820286393166,-0.0129805039614439
12.890481886,-0.485165446996689,-0.21379654109478,-0.0997208133339882
12.910038553,-0.316571593284607,-0.124612838029861,-0.133928254246712
12.929596053,-0.0380252413451672,0.0403159186244011,-0.113159455358982
12.949154386,0.163554355502129,0.122169449925423,-0.0765086188912392
12.968711834,0.124460130929947,0.0549762547016144,-0.0569615066051483
12.988268553,-0.0392469353973866,-0.0696365907788277,-0.0838387832045555
13.007826053,-0.0807845517992973,-0.130721315741539,-0.111937761306763
13.027384386,0.0609320141375065,-0.0525328628718853,-0.102164201438427
13.046941834,0.183101460337639,0.0623064190149307,-0.0569615066051483
13.066498501,0.178214684128761,0.0598630309104919,0.0261137206107378
13.086056001,0.0963611528277397,0.0378725305199623,0.121405892074108
13.105614334,0.0450499840080738,0.123391143977642,0.194707557559013
13.125171782,0.0255028735846281,0.244338899850845,0.226471617817879
13.144728449,-0.0441337153315544,0.266329407691956,0.222806543111801
13.164285949,-0.255486875772476,0.265107721090317,0.231358394026756
13.183844282,-0.542585074901581,0.241895511746407,0.286334663629532
13.20340173,-0.757603287696838,0.0146603342145681,0.337645828723907
13.222958449,-0.618330121040344,-0.503338158130646,0.205702811479568
13.242515897,-0.0355818532407284,-0.833195686340332,-0.0435228683054447
13.26207423,0.531284391880035,-0.533880531787872,-0.136371657252312
13.281631678,0.726755499839783,0.146603345870972,0.0505476109683514
13.301188397,0.586260676383972,0.539988994598389,0.324207186698914
13.320745897,0.263733297586441,0.420262902975082,0.434159696102142
13.34030423,-0.114992000162601,0.196692824363709,0.347419381141663
13.359861626,-0.341005474328995,0.0598630309104919,0.20325942337513
13.379418345,-0.289694309234619,-0.053754560649395,0.118962503969669
13.398975845,-0.155307918787003,-0.0586413368582726,0.123849280178547
13.418534178,-0.163859784603119,0.045202698558569,0.197150945663452
13.438091626,-0.304354637861252,0.118504367768765,0.264344155788422
13.457648293,-0.408198684453964,0.0745233669877052,0.26800924539566
13.477205793,-0.463174939155579,-0.125834539532661,0.148283168673515
13.496764126,-0.48150035738945,-0.313975483179092,-0.0386360883712769
13.516321574,-0.393538355827332,-0.293206691741943,-0.149810284376144
13.535878241,-0.249378398060799,-0.00610847258940339,-0.125376403331757
13.555435741,-0.132095724344254,0.135608091950417,-0.0911689549684525
13.574994074,-0.183406889438629,-0.206466376781464,-0.184017732739449
13.594551522,-0.339783787727356,-0.327414125204086,-0.317182451486588
13.614108241,-0.0649025216698647,0.317640572786331,-0.171800792217255
13.633665688,0.470199674367905,0.780662775039673,0.0920852273702622
13.653224022,0.382237672805786,0.334744304418564,0.0615428611636162
13.67278147,-0.209062471985817,-0.381168693304062,-0.0936123430728912
13.692338188,-0.442406117916107,-0.803874969482422,0.057877779006958
13.711895688,-0.130874022841454,-0.842969238758087,0.428051203489304
13.731454022,0.135455384850502,-0.569309651851654,0.54777729511261
13.751011418,0.153780803084373,-0.302980244159699,0.275339394807816
13.770568136,-0.0135913519188762,-0.173480615019798,-0.125376403331757
13.790125636,-0.441184431314468,0.0818535313010216,-0.410031229257584
13.80968397,-0.837013483047485,0.313975483179092,-0.428356647491455
13.829241418,-0.767376840114594,0.21501824259758,-0.37460207939148
13.848798084,-0.347113966941834,0.168593838810921,-0.512653589248657
13.868355584,0.0548235401511192,0.290763288736343,-0.730115175247192
13.887913918,0.206313654780388,0.390942245721817,-0.831515848636627
13.907471366,0.229525864124298,0.304201930761337,-0.722784996032715
13.927028084,0.212422132492065,0.180810794234276,-0.467450857162476
13.946585532,0.208757057785988,0.174702316522598,-0.333064466714859
13.966143918,0.24540787935257,0.228456869721413,-0.333064466714859
13.985701313,0.261289924383163,0.30175855755806,-0.246324151754379
14.005258032,0.163554355502129,0.208909764885902,0.0102316914126277
14.024815532,-0.0209215190261602,-0.102622337639332,0.285112947225571
14.044373866,-0.189515367150307,-0.268772780895233,0.337645828723907
14.063931313,-0.229831278324127,-0.136829793453217,0.177603840827942
14.083488032,-0.183406889438629,0.0171037241816521,0.0187835525721312
14.103045532,-0.215170949697495,-0.0879620015621185,-0.0398577824234962
14.122603866,-0.297024488449097,-0.244338899850845,-0.027640838176012
14.142161313,-0.259151935577393,-0.174702316522598,-0.00198525353334844
14.161718032,-0.143090963363647,-0.0623064190149307,-0.0471879504621029
14.181275532,-0.0807845517992973,-0.10750912129879,-0.148588597774506
14.200833866,-0.0294733811169863,-0.173480615019798,-0.184017732739449
14.220391313,0.130568608641624,-0.0989572554826737,-0.143701821565628
14.239948032,0.332148194313049,-0.0158820282667875,-0.105829291045666
14.259505532,0.372464120388031,-0.0671931952238083,-0.165692314505577
14.279063866,0.194096714258194,-0.135608091950417,-0.197456374764442
14.298621313,0.0780357345938683,-0.173480615019798,-0.107050985097885
14.318178032,0.170884519815445,-0.0842969194054604,-0.0557398125529289
14.337735532,0.301605820655823,0.00244338903576136,-0.140036731958389
14.357293866,0.253959745168686,-0.00244338903576136,-0.195012986660004
14.376851313,0.142785549163818,0.0329857505857945,-0.171800792217255
14.396408032,0.119573347270489,0.119726061820984,-0.148588597774506
14.415965532,0.194096714258194,0.138051480054855,-0.147366896271706
14.435523918,0.280837029218674,-0.00855186209082604,-0.0984991192817688
14.455081366,0.466534584760666,-0.196692824363709,0.0114533863961697
14.474638084,0.494633555412293,-0.0586413368582726,0.153169944882393
14.494195584,-0.149199441075325,0.138051480054855,0.388956993818283
14.513753918,-1.1363285779953,0.0781884491443634,0.425607830286026
14.533311366,-1.51505386829376,-0.138051480054855,0.26556584239006
14.552868084,-0.943300902843475,-0.0280989743769169,0.0920852273702622
14.572425636,0.0157293174415827,0.304201930761337,-0.0471879504621029
14.59198397,0.676666021347046,0.389720559120178,-0.166914016008377
14.611541418,0.844038188457489,0.189362645149231,-0.254876017570496
14.631098136,0.660784006118774,0.0415376126766205,-0.227998733520508
14.650655688,0.442100703716278,0.0720799788832665,-0.100942507386208
14.670214022,0.343143433332443,0.182032480835915,-0.0178672820329666
14.68977147,0.283280402421951,0.228456869721413,-0.0178672820329666
14.709328188,0.214865520596504,0.155155196785927,-0.019088976085186
14.728885741,0.145228937268257,0.0794101431965828,0.00167983002029359
14.748444074,0.0988045409321785,0.0525328628718853,0.00778830237686634
14.768001574,0.0633754059672356,0.0647498071193695,-0.0105371149256825
14.787558293,0.00229067727923393,0.108730815351009,-0.0313059203326702
14.807115793,-0.0624591335654259,0.136829793453217,-0.0484096445143223
14.826674178,-0.0905581042170525,0.158820286393166,-0.0777303129434586
14.846231626,-0.0783411636948586,0.151490122079849,-0.115602843463421
14.865788345,-0.0184781290590763,0.0696365907788277,-0.185239434242249
14.885345897,0.0609320141375065,-0.0195471122860909,-0.287861764431
14.90490423,0.064597100019455,-0.0403159186244011,-0.323290914297104
14.92446173,0.0401632077991962,0.0427593067288399,-0.276866525411606
14.944018449,0.0413849018514156,0.0965138673782349,-0.214560106396675
14.963575949,0.0487150698900223,0.053754560649395,-0.212116703391075
14.983134334,0.0193943995982409,0.0329857505857945,-0.22311195731163
15.002691782,-0.0123696569353342,0.0659715011715889,-0.185239434242249
15.022248553,-0.0636808276176453,0.0390942245721817,-0.078952006995678
15.041806053,-0.149199441075325,-0.0671931952238083,0.00656660785898566
15.061364438,-0.150421142578125,-0.0891837030649185,0.013896775431931
15.080921886,-0.0539072714745998,-0.0171037241816521,-0.0557398125529289
15.100478657,0.0939177647233009,0.00977355614304543,-0.121711313724518
15.120036157,0.20142687857151,-0.0745233669877052,-0.124154701828957
15.139594543,0.184323161840439,-0.138051480054855,-0.027640838176012
15.159151991,0.0670404881238937,-0.0329857505857945,-0.0178672820329666
15.178708761,-0.0416903272271156,-0.0232121963053942,-0.124154701828957
15.198266261,-0.167524859309196,-0.0818535313010216,-0.207229927182198
15.217824647,-0.327566832304001,-0.0280989743769169,-0.149810284376144
15.237382095,-0.406976997852325,-0.0183254182338715,-0.0410794764757156
15.256938866,-0.310463130474091,-0.172258928418159,-0.0594048947095871
15.276496366,-0.00381779531016946,-0.252890765666962,-0.269536346197128
15.296054751,0.361468851566315,-0.168593838810921,-0.397814273834229
15.315612251,0.483638316392899,-0.0745233669877052,-0.308630585670471
15.33516897,0.24785128235817,-0.0378725305199623,-0.120489619672298
15.35472647,-0.0930014923214912,0.00244338903576136,0.0126750804483891
15.374284855,-0.326345145702362,0.0794101431965828,0.0187835525721312
15.393842355,-0.354444116353989,0.105065725743771,-0.0117588099092245
15.413399074,-0.211505860090256,0.0977355614304543,0.0236703306436539
15.432956626,-0.042912021279335,-0.00244338903576136,0.0957503095269203
15.452515011,0.0560452342033386,-0.108730815351009,0.0835333615541458
15.472072459,0.147672325372696,-0.129499614238739,0.00167983002029359
15.49162923,0.284502118825913,-0.105065725743771,-0.0813953951001167
15.51118673,0.368799030780792,-0.0708582848310471,-0.144923508167267
15.530745116,0.316266179084778,-0.0354291424155235,-0.190126210451126
15.550302616,0.197761803865433,-0.0366508364677429,-0.201121464371681
15.569859334,0.162332653999329,-0.045202698558569,-0.179130956530571
15.589416886,0.194096714258194,-0.025655584409833,-0.158362150192261
15.608975272,0.165997743606567,0.0464243926107883,-0.148588597774506
15.62853272,0.0218377895653248,0.1270562261343,-0.120489619672298
15.648089491,-0.173633337020874,0.0977355614304543,-0.0594048947095871
15.667646991,-0.338562101125717,-0.00244338903576136,0.0273354146629572
15.687205376,-0.405755281448364,-0.0623064190149307,0.0676513314247131
15.706762876,-0.316571593284607,-0.0842969194054604,0.0358872748911381
15.726319595,-0.0221432130783796,-0.129499614238739,-0.0423011742532253
15.745877147,0.257624834775925,-0.083075225353241,-0.0862821787595749
15.765435532,0.307714313268662,-0.0146603342145681,-0.109494373202324
15.78499298,0.233190938830376,-0.204022988677025,-0.153475373983383
15.804549751,0.219752296805382,-0.381168693304062,-0.209673315286636
15.824107251,0.272285163402557,-0.224791795015335,-0.24510246515274
15.843665636,0.251516371965408,0.0403159186244011,-0.209673315286636
15.863223136,0.126903519034386,0.221126705408096,-0.0923906490206718
15.882779855,-0.216392636299133,0.428814768791199,0.134844526648521
15.902337407,-0.540141701698303,0.487456113100052,0.415834277868271
15.921895793,-0.488830506801605,0.156376898288727,0.483027458190918
15.941453293,-0.134539112448692,-0.216239929199219,0.198372647166252
15.961010011,0.266176700592041,-0.307867020368576,-0.18279604613781
15.980567563,0.671779274940491,-0.186919257044792,-0.303743809461594
16.000125949,0.875802278518677,0.0574196428060532,-0.144923508167267
16.019683397,0.664449095726013,0.310310393571854,0.114075727760792
16.039240168,0.134233683347702,0.42759308218956,0.285112947225571
16.05879772,-0.43996274471283,0.34329617023468,0.298551589250565
16.078356105,-0.713622331619263,0.14782503247261,0.180047228932381
16.097913553,-0.520594596862793,-0.0354291424155235,0.0358872748911381
16.117470324,-0.0514638833701611,-0.0708582848310471,-0.0313059203326702
16.137027824,0.212422132492065,0.0977355614304543,-0.0142021989449859
16.156586209,0.13912045955658,0.169815540313721,0.0224486365914345
16.176143709,-0.0209215190261602,0.0647498071193695,-0.0105371149256825
16.19570048,-0.0636808276176453,-0.0842969194054604,-0.0923906490206718
16.21525798,-0.00503948982805014,-0.139273181557655,-0.143701821565628
16.234816366,0.0499367639422417,-0.117282673716545,-0.144923508167267
16.254373866,0.0548235401511192,-0.0940704792737961,-0.1620272397995
16.273930584,0.0352764278650284,-0.101400643587112,-0.173022478818893
16.293488136,-0.114992000162601,-0.0879620015621185,-0.129041478037834
16.313046522,-0.316571593284607,-0.116060979664326,-0.0532964244484901
16.332604022,-0.341005474328995,-0.221126705408096,-0.030084228143096
16.352160741,-0.146756052970886,-0.190584346652031,-0.0105371149256825
16.371718293,0.0792574286460877,0.0696365907788277,0.0896418318152428
16.391276678,0.141563847661018,0.269994497299194,0.220363155007362
16.410834178,0.0633754059672356,0.152711808681488,0.282669574022293
16.430390897,-0.0539072714745998,-0.114839285612106,0.351084470748901
16.449948449,-0.0624591335654259,-0.183254182338715,0.340089201927185
16.469506834,0.165997743606567,0.0183254182338715,0.154391646385193
16.489064334,0.443322390317917,0.227235183119774,-0.104607589542866
16.508621053,0.494633555412293,0.251669079065323,-0.355054974555969
16.528178605,0.278393626213074,0.139273181557655,-0.530978977680206
16.547736991,-0.0196998249739409,0.0794101431965828,-0.610389113426209
16.567294491,-0.243269920349121,0.076966755092144,-0.496771544218063
16.586851209,-0.309241414070129,-0.0122169451788068,-0.170579090714455
16.606408761,-0.17974179983139,-0.223570093512535,-0.0154238929972053
16.625967147,0.009620844386518,-0.342074453830719,-0.154697075486183
16.645524647,0.196540102362633,-0.218683317303658,-0.333064466714859
16.665081366,0.318709552288055,0.0513111688196659,-0.260984480381012
16.684638918,0.362690567970276,0.189362645149231,0.0212269425392151
16.704197303,0.0841442123055458,0.0867403075098991,0.221584841609001
16.723754803,-0.597561359405518,0.0464243926107883,0.129957750439644
16.743311522,-1.0056072473526,-0.0598630309104919,0.0652079433202744
16.762869074,-0.69651859998703,-0.083075225353241,0.186155706644058
16.782427459,-0.132095724344254,0.0305423624813557,0.264344155788422
16.801984959,0.0548235401511192,0.0904053971171379,0.214254677295685
16.82154173,-0.0917797982692719,0.0891837030649185,0.0749815031886101
16.84109923,-0.249378398060799,0.119726061820984,-0.0313059203326702
16.860657616,-0.26892551779747,0.0818535313010216,-0.0068720318377018
16.880215116,-0.210284173488617,-0.0232121963053942,0.0774248912930489
16.899771886,-0.0930014923214912,-0.0305423624813557,0.0737598091363907
16.919329386,0.0377198196947575,0.0610847249627113,0.0468825288116932
16.938887772,0.0926960706710815,0.0745233669877052,0.0652079433202744
16.958445272,0.0584886260330677,-0.0696365907788277,0.063986249268055
16.978002043,-0.0465771034359932,-0.155155196785927,0.00900999736040831
16.997559543,-0.114992000162601,-0.100178949534893,-0.0227540601044893
17.017117928,-0.0820062458515167,0.0207688063383102,0.049325916916132
17.036675428,-0.0172564350068569,0.00244338903576136,0.15927842259407
17.056232199,0.0157293174415827,-0.0818535313010216,0.222806543111801
17.075789751,0.0193943995982409,-0.0109952501952648,0.208146199584007
17.095348136,0.00106898276135325,0.151490122079849,0.13850961625576
17.114905584,-0.0978882759809494,0.249225676059723,0.109188944101334
17.134462355,-0.26648211479187,0.21501824259758,0.154391646385193
17.154019907,-0.43751934170723,0.184475868940353,0.16050012409687
17.173578293,-0.513264417648315,0.201579600572586,0.049325916916132
17.193135793,-0.362995982170105,0.1270562261343,-0.100942507386208
17.212692511,-0.0807845517992973,0.0647498071193695,-0.125376403331757
17.232250063,0.0536018460988998,0.262664318084717,0.00778830237686634
17.251808449,0.0181727055460215,0.548540830612183,0.228915005922318
17.271365949,-0.239604830741882,0.615734040737152,0.390178680419922
17.290922668,-0.729504346847534,0.306645333766937,0.35230615735054
17.31048022,-0.912758529186249,-0.274881273508072,0.128736063838005
17.330038605,-0.472948491573334,-0.607182204723358,-0.0899472609162331
17.349596105,0.26739838719368,-0.317640572786331,-0.0447445623576641
17.369152876,0.743859231472015,0.267551094293594,0.221584841609001
17.388710376,0.649788796901703,0.597408592700958,0.45859357714653
17.408268761,0.148894011974335,0.386055469512939,0.469588816165924
17.427826261,-0.295802772045136,-0.0720799788832665,0.259457379579544
17.447383032,-0.306798040866852,-0.278546363115311,0.0383306667208672
17.466940532,-0.0160347409546375,-0.194249421358109,0.000458135444205254
17.48649897,0.257624834775925,0.0317640565335751,0.0896418318152428
17.506056418,0.362690567970276,0.141716569662094,0.161721810698509
17.525613188,0.301605820655823,0.100178949534893,0.15927842259407
17.545170741,0.219752296805382,0.053754560649395,0.0908635333180428
17.564729126,0.225860774517059,0.0598630309104919,0.0114533863961697
17.584286626,0.282058715820313,0.0720799788832665,-0.0251974500715733
17.603843345,0.319931238889694,0.0549762547016144,-0.019088976085186
17.623400897,0.332148194313049,0.053754560649395,-0.00809372588992119
17.642959282,0.352917015552521,0.120947755873203,0.0224486365914345
17.662516782,0.3113794028759,0.168593838810921,0.0823116675019264
17.682073501,0.153780803084373,0.102622337639332,0.188599094748497
17.701631053,-0.0404686294496059,-0.0195471122860909,0.274117708206177
17.721189438,-0.145534366369247,-0.0549762547016144,0.249683812260628
17.740746938,-0.105218440294266,-0.0317640565335751,0.149504870176315
17.760303709,0.0658187940716744,-0.0305423624813557,0.0798682793974876
17.779861261,0.211200445890427,-0.0745233669877052,0.123849280178547
17.799419647,0.0780357345938683,-0.0659715011715889,0.288778036832809
17.818977147,-0.183406889438629,-0.153933510184288,0.220363155007362
17.838533866,-0.147977754473686,-0.289541602134705,-0.109494373202324
17.858091418,0.14034216105938,-0.307867020368576,-0.20234315097332
17.877649803,0.271063476800919,-0.230900257825851,-0.0496313385665417
17.897207303,0.112243182957172,-0.182032480835915,-0.0313059203326702
17.916764022,-0.157751306891441,-0.0879620015621185,-0.236550599336624
17.936321574,-0.387429863214493,0.113617591559887,-0.368493616580963
17.955879959,-0.474170178174973,0.174702316522598,-0.344059705734253
17.975437459,-0.156529605388641,-0.083075225353241,-0.340394645929337
17.99499423,0.282058715820313,-0.238230437040329,-0.411252915859222
18.014551782,0.399341404438019,-0.113617591559887,-0.419804781675339
18.034110168,0.283280402421951,0.111174203455448,-0.334286153316498
18.053667668,0.162332653999329,0.262664318084717,-0.207229927182198
18.073224386,0.064597100019455,0.250447362661362,-0.137593343853951
18.092781938,-0.00748287886381149,0.163707062602043,-0.115602843463421
18.112340324,-0.00381779531016946,0.155155196785927,-0.0887255668640137
18.131897824,0.0829225182533264,0.141716569662094,-0.0068720318377018
18.151454595,0.144007235765457,0.0415376126766205,0.0884201377630234
18.171012095,0.104913018643856,-0.0574196428060532,0.162943512201309
18.190570532,0.0206160955131054,-0.0794101431965828,0.221584841609001
18.21012798,-0.0209215190261602,-0.0244338903576136,0.272896021604538
18.229684751,-0.0380252413451672,0.0244338903576136,0.326650559902191
18.249242303,-0.0514638833701611,0.0207688063383102,0.353527843952179
18.268800688,-0.00626118434593082,0.00733016710728407,0.33275905251503
18.288358188,0.134233683347702,0.0244338903576136,0.30832514166832
18.307914907,0.317487865686417,0.117282673716545,0.305881768465042
18.327472459,0.455539345741272,0.237008735537529,0.294886499643326
18.347030845,0.454317659139633,0.348182946443558,0.288778036832809
18.366588345,0.372464120388031,0.349404633045197,0.233801782131195
18.386145116,0.251516371965408,0.163707062602043,0.136066228151321
18.405702668,0.0206160955131054,-0.0708582848310471,0.0529909990727901
18.425261053,-0.256708562374115,-0.166150450706482,0.0285571087151766
18.444818501,-0.367882758378983,0.0293206684291363,0.0725381150841713
18.464375272,-0.238383144140244,0.202801287174225,0.116519115865231
18.483932824,-0.103996746242046,0.076966755092144,0.111632339656353
18.503491209,-0.16019469499588,-0.0794101431965828,0.100637085735798
18.523048709,-0.227387890219688,0.025655584409833,0.0896418318152428
18.542605428,-0.141869276762009,0.138051480054855,0.0114533863961697
18.56216298,-0.0514638833701611,-0.119726061820984,-0.0642916709184647
18.581721366,0.0560452342033386,-0.439810037612915,-0.0984991192817688
18.601278866,0.257624834775925,-0.309088706970215,-0.121711313724518
18.620835636,0.449430882930756,0.118504367768765,-0.132706567645073
18.640393136,0.473864763975143,0.199136212468147,-0.190126210451126
18.659951522,0.282058715820313,-0.1282779276371,-0.238993987441063
18.679509022,0.00351237179711461,-0.174702316522598,-0.218225181102753
18.699065793,-0.300689578056335,0.272437870502472,-0.103385895490646
18.718623345,-0.606113195419312,0.519220173358917,-0.0423011742532253
18.73818173,-0.687966704368591,0.0293206684291363,-0.133928254246712
18.757739178,-0.442406117916107,-0.434923261404038,-0.368493616580963
18.777295949,-0.0649025216698647,-0.283433139324188,-0.518762052059174
18.796853501,0.250294655561447,0.0867403075098991,-0.456455618143082
18.816411886,0.340700060129166,0.083075225353241,-0.388040721416473
18.835969386,0.196540102362633,-0.0733016729354858,-0.395370900630951
18.855526105,0.0316113457083702,-0.053754560649395,-0.368493616580963
18.875083657,0.0145076224580407,0.144159957766533,-0.234107211232185
18.894642043,0.0193943995982409,0.273659586906433,-0.137593343853951
18.914199543,-0.034360159188509,0.0794101431965828,-0.141258433461189
18.933756261,-0.00748287886381149,-0.142938256263733,-0.168135702610016
18.953313813,0.0890309885144234,-0.0549762547016144,-0.133928254246712
18.972872199,0.109799794852734,0.101400643587112,-0.0765086188912392
18.992429699,0.0377198196947575,0.0464243926107883,-0.124154701828957
19.011986418,0.00473406631499529,-0.117282673716545,-0.214560106396675
19.03154397,0.0755923464894295,-0.0647498071193695,-0.213338404893875
19.051102355,0.130568608641624,0.0952921733260155,-0.120489619672298
19.070659855,0.0487150698900223,0.0513111688196659,-0.066735066473484
19.090216574,-0.0807845517992973,-0.186919257044792,-0.109494373202324
19.109774126,-0.0942231863737106,-0.30175855755806,-0.148588597774506
19.129332511,0.0474933758378029,-0.179589092731476,-0.104607589542866
19.148889959,0.147672325372696,-0.0268772803246975,-0.0948340371251106
19.16844673,0.0988045409321785,-0.0598630309104919,-0.1608055382967
19.188004282,0.00839914940297604,-0.2541124522686,-0.217003494501114
19.207562668,-0.0697892978787422,-0.32130566239357,-0.201121464371681
19.227120116,-0.134539112448692,-0.222348406910896,-0.192569598555565
19.246676834,-0.188293665647507,-0.163707062602043,-0.274423122406006
19.266234386,-0.261595338582993,-0.180810794234276,-0.403922736644745
19.285792772,-0.244491621851921,-0.145381644368172,-0.483332902193069
19.305350272,-0.113770298659801,-0.0500894747674465,-0.506545066833496
19.324906991,0.0536018460988998,0.0525328628718853,-0.566408097743988
19.344464543,0.0536018460988998,0.0842969194054604,-0.664143681526184
19.364022928,-0.193180441856384,-0.0219905003905296,-0.726450085639954
19.383580376,-0.37276953458786,-0.0745233669877052,-0.777761280536652
19.403137147,-0.315349906682968,-0.0549762547016144,-0.929251372814179
19.422694647,-0.215170949697495,-0.0109952501952648,-1.20413267612457
19.442253032,-0.255486875772476,-0.0427593067288399,-1.4484715461731
19.461810532,-0.371547847986221,-0.0647498071193695,-1.56697595119476
19.481367251,-0.505934238433838,0.152711808681488,-1.57308435440063
19.500924803,-0.760046720504761,0.34085276722908,-1.57797122001648
19.520483136,-1.03248453140259,0.353069722652435,-1.57552778720856
19.540040636,-0.852895498275757,0.2541124522686,-1.61584365367889
19.559597355,-0.0710109919309616,0.194249421358109,-1.76977717876434
19.579154907,0.752411127090454,0.296871781349182,-1.92371070384979
19.598713241,1.03950929641724,0.349404633045197,-1.94447958469391
19.618270741,0.771958231925964,0.27732464671135,-1.86995613574982
19.637827459,0.399341404438019,0.158820286393166,-1.85285246372223
19.657385011,0.235634326934814,0.0891837030649185,-1.91393721103668
19.676943345,0.294275671243668,0.142938256263733,-1.91393721103668
19.696500845,0.476308137178421,0.245560601353645,-1.81742334365845
19.716057563,0.539836287498474,0.311532109975815,-1.71357929706573
19.735615116,0.39323291182518,0.232121959328651,-1.68914532661438
19.755173449,0.178214684128761,0.0684148967266083,-1.76122534275055
19.774730949,0.0328330397605896,-0.0366508364677429,-1.83941376209259
19.794287668,-0.023364907130599,0.0268772803246975,-1.86995613574982
19.813845168,-0.0820062458515167,0.155155196785927,-1.81986665725708
19.833403553,-0.162638083100319,0.135608091950417,-1.74167823791504
19.852961053,-0.217614337801933,-0.0219905003905296,-1.71968770027161
19.872517772,-0.182185187935829,-0.10750912129879,-1.76244699954987
19.892075272,-0.100331664085388,-0.045202698558569,-1.83330535888672
19.911633657,0.00717745535075665,0.0427593067288399,-1.86995613574982
19.931191105,0.0670404881238937,0.0329857505857945,-1.88095140457153
19.950747824,0.0132859274744987,-0.0561979487538338,-1.91638052463532
19.970305376,-0.0416903272271156,-0.125834539532661,-1.96891343593597
19.989863709,-0.0196998249739409,-0.0842969194054604,-1.97380018234253
20.009421209,0.0560452342033386,0.0390942245721817,-1.92126739025116
20.028977928,0.137898772954941,0.0623064190149307,-1.88705992698669
20.048535428,0.146450623869896,-0.00733016710728407,-1.88950324058533
20.068093813,0.111021488904953,0.00122169451788068,-1.84674394130707
20.087651261,0.158667579293251,0.184475868940353,-1.74045658111572
20.10720798,0.258846521377564,0.313975483179092,-1.663489818573
20.126765532,0.321152955293655,0.199136212468147,-1.71113586425781
20.146323866,0.316266179084778,0.0818535313010216,-1.80520641803741
20.165881366,0.191653326153755,0.144159957766533,-1.80887138843536
20.185438084,0.0548235401511192,0.237008735537529,-1.7661120891571
20.204995584,0.128125205636024,0.129499614238739,-1.7758857011795
20.22455397,0.366355657577515,-0.0904053971171379,-1.83574867248535
20.244111418,0.555718302726746,-0.156376898288727,-1.91882395744324
20.263668136,0.589925765991211,0.00244338903576136,-1.99090397357941
20.283225636,0.527619302272797,0.136829793453217,-1.97380018234253
20.302784022,0.416445106267929,0.116060979664326,-1.93104088306427
20.32234147,0.20142687857151,0.0855186134576798,-1.91393721103668
20.341898188,-0.0942231863737106,0.19302773475647,-1.84430062770844
20.361455688,-0.332453608512878,0.21501824259758,-1.77955079078674
20.381014074,-0.413085460662842,0.0317640565335751,-1.84796571731567
20.400571522,-0.430189192295074,-0.130721315741539,-2.02144622802734
20.420128241,-0.402090221643448,-0.1282779276371,-2.15705442428589
20.439685793,-0.28847262263298,0.00733016710728407,-2.21080899238586
20.459244126,-0.163859784603119,0.112395897507668,-2.2047004699707
20.478801574,-0.127208948135376,0.0891837030649185,-2.20225715637207
20.498358345,-0.173633337020874,0.0427593067288399,-2.21569561958313
20.517915845,-0.194402143359184,0.0232121963053942,-2.14850258827209
20.537474178,-0.136982500553131,0.00855186209082604,-1.96647000312805
20.557031678,-0.13820418715477,-0.00244338903576136,-1.822310090065
20.576588397,-0.217614337801933,-0.0745233669877052,-1.83697044849396
20.596145897,-0.215170949697495,-0.144159957766533,-1.91149377822876
20.61570423,-0.0758977755904198,-0.153933510184288,-1.97380018234253
20.63526173,0.080479122698307,-0.151490122079849,-1.99456906318665
20.654818449,0.0609320141375065,-0.172258928418159,-1.97380018234253
20.674375949,-0.0905581042170525,-0.153933510184288,-1.88461649417877
20.693934282,-0.155307918787003,-0.0696365907788277,-1.78321588039398
20.713491782,-0.025808297097683,-0.0427593067288399,-1.75756025314331
20.733048501,0.192875027656555,-0.0403159186244011,-1.79298937320709
20.752606001,0.26984179019928,0.0733016729354858,-1.79054605960846
20.772164334,0.136677071452141,0.141716569662094,-1.70258402824402
20.791721834,-0.0184781290590763,0.00488677807152271,-1.60118341445923
20.811278501,-0.0673459097743034,-0.123391143977642,-1.5694192647934
20.830836053,-0.0539072714745998,-0.0293206684291363,-1.55720233917236
20.850394386,-0.0209215190261602,0.155155196785927,-1.49489593505859
20.869951834,-0.0135913519188762,0.245560601353645,-1.37639153003693
20.889508553,-0.0551289655268192,0.224791795015335,-1.27743434906006
20.909066053,-0.100331664085388,0.190584346652031,-1.23711836338043
20.928624438,-0.0453554093837738,0.219905018806458,-1.22856652736664
20.948181886,0.0389415137469769,0.207688063383102,-1.18092048168182
20.967738605,0.0939177647233009,0.113617591559887,-1.08318495750427
20.987296105,0.125681817531586,0.0280989743769169,-0.968345642089844
21.006854491,0.134233683347702,0.0586413368582726,-0.865723252296448
21.026411938,0.114686571061611,0.139273181557655,-0.796086668968201
21.045968657,0.0536018460988998,0.152711808681488,-0.738667070865631
21.065526157,0.0132859274744987,0.0671931952238083,-0.676360607147217
21.085084491,0.0548235401511192,-0.0146603342145681,-0.62627112865448
21.104641991,0.158667579293251,-0.0232121963053942,-0.573738276958466
21.124198657,0.170884519815445,0.076966755092144,-0.466229170560837
21.143756209,-0.0636808276176453,0.184475868940353,-0.285418391227722
21.163314543,-0.341005474328995,0.184475868940353,-0.173022478818893
21.182871991,-0.395981729030609,0.129499614238739,-0.229220435023308
21.202428709,-0.174855023622513,0.0879620015621185,-0.336729556322098
21.221986209,0.24540787935257,0.0916270911693573,-0.39659258723259
21.241544595,0.609472870826721,0.161263674497604,-0.412474602460861
21.261102043,0.746302664279938,0.109952509403229,-0.430800020694733
21.280658761,0.651010453701019,-0.0708582848310471,-0.430800020694733
21.300216261,0.409114956855774,-0.108730815351009,-0.373380392789841
21.319774595,0.147672325372696,-0.0207688063383102,-0.249989241361618
21.339332043,-0.0380252413451672,-0.0720799788832665,-0.184017732739449
21.358888761,-0.183406889438629,-0.257777541875839,-0.1608055382967
21.378446313,-0.321458369493485,-0.263886004686356,-0.0911689549684525
21.398004647,-0.325123459100723,-0.0561979487538338,-0.0251974500715733
21.417562095,-0.210284173488617,0.0549762547016144,-0.0264191441237927
21.437118813,-0.0600157417356968,-0.0171037241816521,-0.143701821565628
21.456676313,0.0499367639422417,-0.0378725305199623,-0.226777046918869
21.476234647,0.0829225182533264,0.113617591559887,-0.191347897052765
21.495792147,0.101247936487198,0.211353152990341,-0.103385895490646
21.515348813,0.0865876004099846,0.10628741979599,-0.0520747303962708
21.534906366,0.0328330397605896,-0.111174203455448,-0.0630699768662453
21.554464699,0.0120642334222794,-0.179589092731476,-0.027640838176012
21.574022147,0.0780357345938683,-0.0671931952238083,0.0737598091363907
21.593578866,0.147672325372696,0.0305423624813557,0.13850961625576
21.613136366,0.147672325372696,0.0415376126766205,0.125070974230766
21.632694699,0.163554355502129,-0.0684148967266083,0.0346655808389187
21.652252199,0.307714313268662,-0.184475868940353,-0.0655133649706841
21.671808866,0.517845749855042,-0.1270562261343,-0.0838387832045555
21.691366418,0.567935228347778,0.0757450610399246,-0.000763559073675424
21.710924751,0.431105464696884,0.227235183119774,0.0835333615541458
21.730482199,0.350473612546921,0.117282673716545,0.0371089726686478
21.750038918,0.550831496715546,0.0745233669877052,-0.171800792217255
21.769596418,0.973537802696228,0.500894725322723,-0.401479363441467
21.789154751,1.14701843261719,0.949256658554077,-0.221890270709991
21.808712251,0.908788025379181,0.834417343139648,0.200816035270691
21.828268918,0.492190182209015,0.150268420577049,0.314433634281158
21.84782647,0.0132859274744987,-0.498451352119446,0.131179451942444
21.867384803,-0.529146432876587,-0.394607335329056,0.148283168673515
21.886942251,-1.14121544361115,0.201579600572586,0.5233433842659
21.90649897,-1.21207368373871,0.111174203455448,0.914285659790039
21.92605647,-0.362995982170105,-0.702474355697632,0.768903970718384
21.945614803,0.58870404958725,-1.00545454025269,0.26800924539566
21.965172251,0.846481561660767,-0.29931515455246,0.0859767496585846
21.98472897,0.087809294462204,0.456913739442825,0.41705596446991
22.00428647,-0.846787035465241,0.252890765666962,0.627187430858612
22.023844855,-0.762490093708038,-0.217461630702019,0.303438365459442
22.043402303,0.146450623869896,0.0342074483633041,-0.185239434242249
22.062959022,0.648567080497742,0.612068951129913,-0.315960735082626
22.082516522,0.316266179084778,0.635281145572662,-0.149810284376144
22.102074855,-0.338562101125717,0.108730815351009,-0.0838387832045555
22.121632303,-0.581679284572601,-0.316418886184692,-0.195012986660004
22.141189022,-0.256708562374115,-0.332300901412964,-0.293970257043839
22.160746522,0.261289924383163,-0.158820286393166,-0.292748540639877
22.180304855,0.533727765083313,-0.045202698558569,-0.238993987441063
22.199862303,0.477529853582382,-0.0684148967266083,-0.187682822346687
22.219419022,0.241742804646492,-0.208909764885902,-0.180352658033371
22.238976522,0.009620844386518,-0.335965991020203,-0.175465881824493
22.258534855,-0.0893364101648331,-0.284654825925827,-0.125376403331757
22.278092303,-0.0624591335654259,-0.102622337639332,-0.00809372588992119
22.297649022,-0.0868930220603943,0.0427593067288399,0.129957750439644
22.317206522,-0.201732307672501,0.1282779276371,0.198372647166252
22.336764855,-0.304354637861252,0.179589092731476,0.182490617036819
22.356322303,-0.238383144140244,0.123391143977642,0.120184198021889
22.375879022,-0.0404686294496059,0.114839285612106,0.0847550556063652
22.395436522,0.0755923464894295,0.246782287955284,0.11774080991745
22.414994855,0.0841442123055458,0.260220944881439,0.128736063838005
22.434552303,0.106134712696075,0.0855186134576798,0.0774248912930489
22.454109022,0.148894011974335,-0.0427593067288399,-0.0142021989449859
22.473666522,0.0975828468799591,0.00488677807152271,-0.0887255668640137
22.493224855,-0.147977754473686,0.0305423624813557,-0.138815045356751
22.512782303,-0.349557340145111,-0.21501824259758,-0.235328912734985
22.532339022,-0.105218440294266,-0.55098420381546,-0.347724795341492
22.551896522,0.37368580698967,-0.401937484741211,-0.375823765993118
22.571454855,0.659562349319458,0.346961230039597,-0.215781792998314
22.591012303,0.611916244029999,0.934596300125122,0.0652079433202744
22.61056897,0.341921746730804,0.640167951583862,0.120184198021889
22.63012647,0.178214684128761,-0.0965138673782349,-0.0875038728117943
22.649684803,0.379794269800186,-0.437366634607315,-0.401479363441467
22.669242251,0.802500605583191,-0.261442631483078,-0.486997991800308
22.68879897,0.997971713542938,-0.0745233669877052,-0.379488855600357
22.70835647,0.426218688488007,0.0598630309104919,-0.130263179540634
22.727914803,-0.614665031433106,-0.0720799788832665,0.0615428611636162
22.747472199,-1.30858755111694,-0.453248679637909,0.140953004360199
22.767028918,-1.1839747428894,-0.66215842962265,0.0774248912930489
22.786586418,-0.661089420318604,-0.390942245721817,0.15927842259407
22.806144751,-0.373991221189499,0.0415376126766205,0.248462125658989
22.825702199,-0.309241414070129,-0.0439810007810593,0.136066228151321
22.845258866,-0.257930248975754,-0.397050708532333,-0.100942507386208
22.864816366,-0.114992000162601,-0.44958359003067,-0.177909269928932
22.884374699,0.129346907138824,-0.118504367768765,0.000458135444205254
22.903932147,0.394454628229141,0.255334168672562,0.344975978136063
22.923488813,0.56427013874054,0.344517856836319,0.527008473873138
22.943046313,0.527619302272797,0.185697570443153,0.457371890544891
22.962604647,0.235634326934814,0.0598630309104919,0.343754291534424
22.982162095,-0.0587940476834774,0.167372152209282,0.322985500097275
23.001718761,-0.108883522450924,0.31886225938797,0.294886499643326
23.021276261,0.0584886260330677,0.365286648273468,0.15927842259407
23.040834595,0.282058715820313,0.379947006702423,0.00900999736040831
23.060392043,0.478751540184021,0.345739543437958,-0.0581832006573677
23.079948709,0.563048481941223,0.409267663955689,-0.019088976085186
23.099506209,0.28694549202919,0.525328636169434,0.0884201377630234
23.119064543,-0.43751934170723,0.410489350557327,0.0798682793974876
23.138621938,-0.949409365653992,0.17103722691536,-0.0532964244484901
23.158178657,-0.50349086523056,-0.125834539532661,-0.1620272397995
23.177736105,0.326039731502533,0.0427593067288399,0.0566560849547386
23.197294438,0.572822034358978,0.645054697990418,0.364523112773895
23.216851886,0.15988926589489,0.62306421995163,0.362079709768295
23.236408553,-0.217614337801933,-0.0671931952238083,0.13728791475296
23.255966053,-0.133317410945892,-0.404380887746811,-0.066735066473484
23.275524386,0.203870266675949,-0.1270562261343,-0.0862821787595749
23.295081782,0.310157686471939,0.348182946443558,-0.0105371149256825
23.314638501,-0.188293665647507,0.461800515651703,-0.0606265887618065
23.334195949,-0.714843988418579,-0.131943002343178,-0.133928254246712
23.353754282,-0.772263646125794,-0.695144176483154,-0.0887255668640137
23.37331173,-0.563353896141052,-0.522885262966156,0.0456608310341835
23.392868397,-0.371547847986221,-0.10628741979599,0.20325942337513
23.412425845,-0.28847262263298,-0.0207688063383102,0.235023483633995
23.431984178,-0.402090221643448,-0.207688063383102,0.121405892074108
23.451541626,-0.514486074447632,-0.342074453830719,0.0383306667208672
23.471098293,-0.452179670333862,-0.315197199583054,0.0285571087151766
23.490655741,-0.210284173488617,-0.229678571224213,0.0163401644676924
23.510214074,0.0926960706710815,-0.14904673397541,-0.0337493121623993
23.529771522,0.251516371965408,-0.0415376126766205,-0.0374143943190575
23.549328188,0.233190938830376,0.0403159186244011,0.0200052484869957
23.568885636,0.175771296024323,0.0696365907788277,0.0945286154747009
23.58844397,0.178214684128761,0.109952509403229,0.172717064619064
23.608001366,0.229525864124298,0.178367406129837,0.239910259842873
23.627558032,0.322374641895294,0.294428378343582,0.26800924539566
23.647115532,0.337034970521927,0.335965991020203,0.231358394026756
23.666673813,0.212422132492065,0.124612838029861,0.145839780569077
23.686231261,0.145228937268257,-0.0500894747674465,0.0713164210319519
23.705787928,0.218530610203743,0.0794101431965828,0.150726556777954
23.725345376,0.197761803865433,0.202801287174225,0.231358394026756
23.744903709,-0.034360159188509,0.139273181557655,0.0468825288116932
23.764461105,-0.105218440294266,-0.0146603342145681,-0.2903051674366
23.784017772,0.207535356283188,0.1282779276371,-0.45767730474472
23.803575272,0.319931238889694,0.111174203455448,-0.298857033252716
23.823133553,-0.174855023622513,-0.492342889308929,-0.030084228143096
23.842690949,-0.695296883583069,-0.839304149150848,0.144618093967438
23.862247668,-0.494938999414444,-0.588856756687164,0.0969720035791397
23.881805116,0.522732555866242,-0.558314383029938,-0.0826170891523361
23.901363397,1.0370659828186,-0.520441889762878,0.0554343871772289
23.920920793,0.433548837900162,-0.136829793453217,0.338867515325546
23.940477511,-0.769820272922516,0.312753796577454,0.41705596446991
23.960034959,-1.45519089698792,0.323749035596848,0.0859767496585846
23.979593241,-0.954296112060547,0.00244338903576136,-0.198678076267242
23.999150688,-0.195623829960823,0.166150450706482,-0.0264191441237927
24.018707303,0.0401632077991962,0.489899516105652,0.286334663629532
24.038264803,-0.0331384651362896,0.307867020368576,0.243575349450111
24.057823084,-0.042912021279335,0.0232121963053942,-0.0875038728117943
24.07738048,0.122016742825508,0.00855186209082604,-0.330621093511581
24.096937147,0.306492626667023,0.157598599791527,-0.334286153316498
24.116494595,0.324818015098572,0.269994497299194,-0.18157434463501
24.136052928,0.183101460337639,0.219905018806458,-0.0459662564098835
24.155610324,0.042606595903635,0.0158820282667875,-0.0166455879807472
24.175166991,0.0157293174415827,-0.167372152209282,-0.0520747303962708
24.194724438,0.11712995916605,-0.173480615019798,-0.0642916709184647
24.21428272,0.234412640333176,-0.0647498071193695,-0.0215323660522699
24.233840168,0.263733297586441,-0.0342074483633041,0.00412321882322431
24.253396782,0.187988236546516,-0.0916270911693573,-0.0447445623576641
24.272954282,0.0707055702805519,-0.145381644368172,-0.0887255668640137
24.292512563,-0.0245866030454636,-0.207688063383102,-0.0826170891523361
24.312069959,-0.09666658192873,-0.249225676059723,-0.0545181185007095
24.331626626,-0.18096350133419,-0.324970752000809,-0.0435228683054447
24.351184074,-0.319014966487885,-0.507003247737885,-0.0154238929972053
24.370742355,-0.419193923473358,-0.596186935901642,0.0102316914126277
24.390299751,-0.345892250537872,-0.576639831066132,-0.0239757541567087
24.409856418,0.00351237179711461,-0.527772009372711,-0.0838387832045555
24.429413866,0.412780046463013,-0.44958359003067,-0.113159455358982
24.448972199,0.622911512851715,-0.223570093512535,-0.146145209670067
24.468529595,0.69499146938324,0.112395897507668,-0.213338404893875
24.488086209,0.643680274486542,0.453248679637909,-0.273201435804367
24.507643657,0.475086450576782,0.581526577472687,-0.304965496063232
24.527201991,0.335813283920288,0.474017471075058,-0.292748540639877
24.546759386,0.406671553850174,0.356734812259674,-0.207229927182198
24.566316001,0.688883006572723,0.570531368255615,-0.0679567605257034
24.585873449,0.531284391880035,0.976133942604065,0.171495363116264
24.605431782,-0.254265159368515,0.779441118240356,0.274117708206177
24.624989178,-0.906650066375732,-0.00122169451788068,0.233801782131195
24.644545793,-0.959182918071747,-0.261442631483078,0.252127200365067
24.664103241,-0.740499615669251,0.112395897507668,0.392622083425522
24.683661574,-0.741721272468567,0.21257483959198,0.413390874862671
24.70321897,-0.829683303833008,-0.102622337639332,0.191042482852936
24.722775584,-0.621995210647583,-0.313975483179092,-0.0642916709184647
24.742333032,-0.136982500553131,-0.207688063383102,-0.175465881824493
24.761891313,0.255181431770325,-0.00610847258940339,-0.186461120843887
24.781448709,0.371242433786392,0.0574196428060532,-0.20356485247612
24.801005376,0.250294655561447,-0.0109952501952648,-0.237772300839424
24.820562824,0.042606595903635,-0.0940704792737961,-0.231663823127747
24.840121105,-0.0710109919309616,-0.144159957766533,-0.177909269928932
24.859678501,-0.0331384651362896,-0.0720799788832665,-0.0911689549684525
24.879235168,0.0572669319808483,0.0867403075098991,-0.0203106720000505
24.898792616,0.0132859274744987,0.184475868940353,0.00167983002029359
24.918350897,-0.172411635518074,0.129499614238739,-0.0068720318377018
24.937908293,-0.316571593284607,0.0659715011715889,-0.0203106720000505
24.957464907,-0.292137712240219,0.0476460866630077,-0.0117588099092245
24.977022355,-0.168746560811996,0.045202698558569,0.0248920265585184
24.996580636,-0.049020491540432,0.0195471122860909,0.0664296373724937
25.016138032,0.0621537081897259,-0.0207688063383102,0.0786465853452683
25.035694699,0.165997743606567,-0.0415376126766205,0.0346655808389187
25.055252147,0.304049223661423,-0.0427593067288399,-0.0398577824234962
25.074810428,0.442100703716278,-0.0122169451788068,-0.0704001486301422
25.094367824,0.456761032342911,0.0671931952238083,-0.0068720318377018
25.113924438,0.339478373527527,0.103844031691551,0.0957503095269203
25.133481886,0.195318415760994,0.0244338903576136,0.0945286154747009
25.153040168,0.123238436877728,-0.122169449925423,0.0346655808389187
25.172597563,0.114686571061611,-0.145381644368172,0.00290152453817427
25.19215423,-0.00748287886381149,0.0659715011715889,0.0847550556063652
25.211711678,-0.28602921962738,0.379947006702423,0.195929259061813
25.231269959,-0.54625016450882,0.298093467950821,0.0835333615541458
25.250827355,-0.482722043991089,0.229678571224213,-0.177909269928932
25.27038397,0.0291679557412863,0.217461630702019,-0.366050213575363
25.289941418,0.655897259712219,0.1270562261343,-0.328177690505981
25.309499699,0.905122935771942,0.190584346652031,0.0542126931250095
25.329057095,0.552053213119507,0.248003989458084,0.412169188261032
25.348613761,-0.243269920349121,0.172258928418159,0.453706800937653
25.368171209,-0.878551065921783,0.0207688063383102,0.221584841609001
25.387729491,-0.849230408668518,-0.0940704792737961,-0.0813953951001167
25.407286834,-0.332453608512878,-0.0720799788832665,-0.1608055382967
25.426843501,-0.0600157417356968,0.131943002343178,-0.0239757541567087
25.446400949,-0.281142443418503,0.14782503247261,0.0737598091363907
25.46595923,-0.626882016658783,-0.117282673716545,0.00656660785898566
25.485516626,-0.567018985748291,-0.307867020368576,-0.0875038728117943
25.505073241,-0.130874022841454,-0.265107721090317,-0.104607589542866
25.524630688,0.305270910263062,-0.194249421358109,-0.0704001486301422
25.54418897,0.439657300710678,-0.237008735537529,-0.0545181185007095
25.563746366,0.324818015098572,-0.23578704893589,-0.0777303129434586
25.583303032,0.15988926589489,-0.210131451487541,-0.108272679150105
25.60286048,0.128125205636024,-0.249225676059723,-0.138815045356751
25.622418761,0.233190938830376,-0.216239929199219,-0.133928254246712
25.641976105,0.321152955293655,-0.105065725743771,-0.0716218426823616
25.661532772,0.239299416542053,-0.0488677807152271,-0.0203106720000505
25.68109022,0.100026234984398,-0.0342074483633041,-0.0471879504621029
25.700648501,0.0438282899558544,-0.0403159186244011,-0.0642916709184647
25.720205897,-0.0319167710840702,-0.146603345870972,0.0456608310341835
25.739762511,-0.151642829179764,-0.2541124522686,0.167830288410187
25.759319959,-0.105218440294266,-0.2541124522686,0.164165198802948
25.778878241,0.123238436877728,-0.117282673716545,0.0896418318152428
25.798435636,0.293053984642029,0.10628741979599,0.0749815031886101
25.817992251,0.179436385631561,0.156376898288727,0.0847550556063652
25.837549699,-0.057572353631258,0.0757450610399246,0.0529909990727901
25.85710798,-0.0148130459710956,0.0134386401623487,-0.00198525353334844
25.876665376,0.272285163402557,0.00733016710728407,-0.00809372588992119
25.896222043,0.389567852020264,0.114839285612106,0.0749815031886101
25.915779438,0.123238436877728,0.332300901412964,0.20448112487793
25.93533772,-0.523037970066071,0.395829021930695,0.285112947225571
25.954895116,-1.05936181545258,0.0745233669877052,0.291221439838409
25.974451782,-0.972621560096741,-0.161263674497604,0.208146199584007
25.994009178,-0.410642057657242,-0.0207688063383102,0.0615428611636162
26.013567459,-0.00381779531016946,0.122169449925423,-0.0850604772567749
26.033124855,-0.049020491540432,0.0598630309104919,-0.175465881824493
26.052681522,-0.26892551779747,-0.0586413368582726,-0.176687568426132
26.072238918,-0.298246175050736,-0.045202698558569,-0.140036731958389
26.091797199,-0.0758977755904198,0.0623064190149307,-0.130263179540634
26.111354595,0.13912045955658,0.0647498071193695,-0.185239434242249
26.130911261,0.219752296805382,-0.0500894747674465,-0.219446882605553
26.150468657,0.293053984642029,-0.0867403075098991,-0.1620272397995
26.170026938,0.385902762413025,-0.0525328628718853,-0.0471879504621029
26.189584334,0.41522341966629,-0.0818535313010216,0.0187835525721312
26.209141001,0.343143433332443,-0.202801287174225,-0.0398577824234962
26.228698397,0.256403148174286,-0.382390379905701,-0.193791300058365
26.248256678,0.208757057785988,-0.537545561790466,-0.350168198347092
26.267814074,0.273506850004196,-0.323749035596848,-0.322069227695465
26.287370688,0.315044462680817,0.116060979664326,-0.174244180321693
26.306928136,0.126903519034386,0.310310393571854,-0.179130956530571
26.326486418,-0.156529605388641,0.227235183119774,-0.324512600898743
26.346043813,-0.249378398060799,0.1282779276371,-0.368493616580963
26.365600428,-0.0978882759809494,0.21257483959198,-0.215781792998314
26.385157876,0.0572669319808483,0.46668729186058,-0.0142021989449859
26.404716157,0.0658187940716744,0.769667565822601,0.121405892074108
26.424273501,-0.0502421855926514,0.740346848964691,0.293664813041687
26.443830168,-0.165081471204758,0.14904673397541,0.41705596446991
26.463387563,-0.178520113229752,-0.390942245721817,0.319320410490036
26.482945845,-0.0930014923214912,-0.486234426498413,0.161721810698509
26.502503241,0.064597100019455,-0.2565558552742,0.0664296373724937
26.522059855,0.152559101581574,0.0427593067288399,0.0603211671113968
26.541617303,0.0694838762283325,0.0109952501952648,0.00290152453817427
26.561175532,-0.0148130459710956,-0.133164703845978,-0.11682453751564
26.580732928,0.0377198196947575,0.283433139324188,-0.155918762087822
26.600289543,0.129346907138824,0.543654084205627,-0.0594048947095871
26.619846991,0.296719044446945,0.14904673397541,-0.0068720318377018
26.639405272,0.464091211557388,-0.140494868159294,-0.00931542087346315
26.658962616,0.343143433332443,0.00244338903576136,0.013896775431931
26.678519282,-0.261595338582993,0.249225676059723,0.0737598091363907
26.698076678,-1.04470157623291,-0.0610847249627113,0.0505476109683514
26.717634959,-1.10456454753876,-0.576639831066132,-0.107050985097885
26.737192303,-0.436297655105591,-0.443475097417831,-0.208451628684998
26.75674897,0.0157293174415827,0.108730815351009,-0.100942507386208
26.776306366,-0.185850277543068,0.152711808681488,0.0969720035791397
26.795864647,-0.653759300708771,-0.145381644368172,0.20448112487793
26.815421991,-0.874885976314545,-0.240673825144768,0.188599094748497
26.834978657,-0.596339643001556,-0.0696365907788277,0.087198443710804
26.854536053,0.0511584579944611,0.0794101431965828,-0.0484096445143223
26.874094334,0.600920975208283,0.0415376126766205,-0.102164201438427
26.893651678,0.837929725646973,-0.0439810007810593,-0.0618482865393162
26.913208345,0.716981947422028,-0.0952921733260155,0.0285571087151766
26.932765741,0.322374641895294,-0.0794101431965828,0.0774248912930489
26.952324022,0.064597100019455,-0.0109952501952648,-0.0386360883712769
26.971881366,0.123238436877728,0.0146603342145681,-0.136371657252312
26.99143798,0.418888509273529,0.00244338903576136,-0.152253672480583
27.010995428,0.663227438926697,0.0781884491443634,-0.0752869248390198
27.030553657,0.556939959526062,0.164928764104843,0.0334438867866993
27.050111053,0.165997743606567,0.138051480054855,0.0969720035791397
27.069667668,-0.0612374395132065,0.140494868159294,0.0713164210319519
27.089225063,0.042606595903635,0.312753796577454,0.0444391369819641
27.108783345,0.251516371965408,0.411711066961288,0.0676513314247131
27.128340688,0.198983490467072,0.155155196785927,0.103080473840237
27.147897303,0.00595576083287597,-0.366508364677429,0.111632339656353
27.167454751,0.0853659063577652,-0.585191667079926,0.0957503095269203
27.187013032,0.374907493591309,-0.312753796577454,0.0603211671113968
27.206570376,0.448209166526794,-0.201579600572586,0.0835333615541458
27.226126991,0.268620073795319,-0.393385648727417,0.13973131775856
27.245684386,0.197761803865433,-0.34329617023468,0.0774248912930489
27.265242668,0.14034216105938,0.157598599791527,-0.126598089933395
27.284800011,-0.28602921962738,0.293206691741943,-0.18279604613781
27.304356626,-0.757603287696838,-0.412932753562927,-0.104607589542866
27.323914022,-0.738056182861328,-0.849077701568604,-0.124154701828957
27.343472303,-0.312906503677368,-0.246782287955284,-0.308630585670471
27.363029647,-0.0453554093837738,0.437366634607315,-0.300078719854355
27.382586261,-0.205397397279739,0.258999228477478,-0.146145209670067
27.402143657,-0.424080699682236,-0.130721315741539,-0.136371657252312
27.421701938,-0.355665802955627,-0.139273181557655,-0.284196674823761
27.441259282,0.0377198196947575,0.134386390447617,-0.39659258723259
27.460815897,0.37612920999527,0.40560257434845,-0.333064466714859
27.480373293,0.299162447452545,0.384833782911301,-0.232885524630547
27.499931574,-0.09666658192873,0.109952509403229,-0.198678076267242
27.519488918,-0.410642057657242,-0.0476460866630077,-0.220668569207191
27.539045532,-0.398425132036209,0.103844031691551,-0.240215688943863
27.558602928,-0.234718054533005,0.367730051279068,-0.165692314505577
27.578161157,-0.182185187935829,0.339631080627441,-0.0203106720000505
27.597718553,-0.265260428190231,0.0659715011715889,0.0652079433202744
27.617275116,-0.33367532491684,-0.146603345870972,0.00167983002029359
27.636832563,-0.193180441856384,-0.1270562261343,-0.154697075486183
27.656390793,0.173327907919884,0.0390942245721817,-0.284196674823761
27.675948136,0.520289123058319,0.0635281130671501,-0.322069227695465
27.695504751,0.665670812129974,0,-0.302522093057632
27.715062147,0.609472870826721,-0.00610847258940339,-0.293970257043839
27.734620376,0.553274929523468,0.0366508364677429,-0.291526854038239
27.75417772,0.580152213573456,0.153933510184288,-0.275644838809967
27.773734334,0.560605049133301,0.252890765666962,-0.279309898614883
27.79329173,0.47997322678566,0.136829793453217,-0.286640077829361
27.812850011,0.47997322678566,-0.0403159186244011,-0.314739048480988
27.832407355,0.555718302726746,0.0244338903576136,-0.319625824689865
27.851963918,0.427440375089645,0.161263674497604,-0.286640077829361
27.871521366,0.178214684128761,-0.00733016710728407,-0.330621093511581
27.891079595,0.0499367639422417,-0.227235183119774,-0.557856261730194
27.910636938,0.24785128235817,-0.139273181557655,-0.763100922107697
27.930193553,0.537392854690552,0.240673825144768,-0.708124697208405
27.949750949,0.326039731502533,0.577861487865448,-0.397814273834229
27.969309178,-0.639098942279816,0.414154440164566,-0.146145209670067
27.988866522,-1.48939836025238,-0.239452123641968,-0.186461120843887
28.008423084,-1.47718143463135,-0.631616055965424,-0.425913244485855
28.02798048,-0.695296883583069,-0.400715798139572,-0.629936218261719
28.047538761,0.260068207979202,-0.0952921733260155,-0.599393844604492
28.067096105,0.662005722522736,-0.136829793453217,-0.468672573566437
28.086652668,0.414001733064652,-0.296871781349182,-0.383153945207596
28.106210063,0.0193943995982409,-0.351848006248474,-0.367271900177002
28.125768293,-0.135760799050331,-0.265107721090317,-0.39414918422699
28.145325636,-0.0465771034359932,-0.183254182338715,-0.461342394351959
28.164882251,0.170884519815445,-0.177145704627037,-0.5493044257164
28.184439647,0.357803791761398,-0.162485376000404,-0.647039949893951
28.203997876,0.382237672805786,-0.206466376781464,-0.664143681526184
28.22355522,0.229525864124298,-0.218683317303658,-0.495549827814102
28.243111782,-0.0368035472929478,-0.0867403075098991,-0.304965496063232
28.262669178,-0.384986490011215,0.0378725305199623,-0.227998733520508
28.282227407,-0.37521293759346,-0.146603345870972,-0.314739048480988
28.301784751,0.107356406748295,-0.455692052841187,-0.400257676839829
28.321341366,0.631463348865509,-0.310310393571854,-0.370936989784241
28.340898709,0.748746037483215,0.114839285612106,-0.339172929525375
28.360456938,0.530062735080719,0.0134386401623487,-0.455233931541443
28.380014282,0.285723805427551,-0.44958359003067,-0.721563339233398
28.399570897,0.225860774517059,-0.166150450706482,-0.956128656864166
28.419128241,0.111021488904953,0.569309651851654,-0.871831774711609
28.43868647,0.392011225223541,0.384833782911301,-0.700794517993927
28.458243813,1.10181570053101,-0.0671931952238083,-0.600615561008453
28.477800428,1.19710791110992,0.136829793453217,-0.439351886510849
28.497357772,0.190431639552116,0.535102188587189,-0.324512600898743
28.516916001,-1.0996778011322,0.131943002343178,-0.463785767555237
28.536473345,-1.50772368907928,-0.530215442180634,-0.669030487537384
28.556029907,-1.29270553588867,-0.279768049716949,-0.541974246501923
28.575587303,-1.17542278766632,0.376281917095184,-0.115602843463421
28.595145532,-1.10334289073944,0.306645333766937,0.0517693050205708
28.614702876,-1.04103648662567,-0.169815540313721,-0.190126210451126
28.634259438,-0.815022945404053,-0.441031724214554,-0.610389113426209
28.653816834,-0.376434624195099,-0.485012710094452,-0.891378879547119
28.673375063,0.0499367639422417,-0.419041216373444,-0.920699536800385
28.692932355,0.317487865686417,-0.296871781349182,-0.831515848636627
28.71248897,0.37368580698967,-0.296871781349182,-0.748440623283386
28.732045874,0.277171939611435,-0.42514967918396,-0.695907711982727
28.751604104,0.0780357345938683,-0.507003247737885,-0.638488113880158
28.771161447,-0.308019727468491,-0.467909008264542,-0.440573573112488
28.79071801,-0.553580343723297,-0.382390379905701,-0.177909269928932
28.810275406,-0.354444116353989,-0.266329407691956,-0.137593343853951
28.829833635,-0.025808297097683,-0.182032480835915,-0.242659077048302
28.849390927,0.0719272643327713,-0.0244338903576136,-0.308630585670471
28.868947489,-0.0856713280081749,0.261442631483078,-0.275644838809967
28.888504885,-0.254265159368515,0.552205920219421,-0.26587125658989
28.908063114,-0.278699070215225,0.590078473091126,-0.423469871282578
28.927620406,-0.231052979826927,0.500894725322723,-0.673917233943939
28.947176968,-0.343448877334595,0.62306421995163,-0.747218906879425
28.966734364,-0.608556568622589,0.906497359275818,-0.667808771133423
28.986292593,-0.332453608512878,0.907719016075134,-0.730115175247192
29.005849885,0.56915694475174,0.533880531787872,-1.02576529979706
29.025406447,1.22154176235199,0.190584346652031,-1.18336379528046
29.044963843,1.13480150699615,0.0806318372488022,-1.05386424064636
29.064522072,0.418888509273529,0.177145704627037,-0.694686055183411
29.084079364,-0.35077902674675,0.178367406129837,-0.455233931541443
29.103635927,-0.685523331165314,0.00733016710728407,-0.469894260168076
29.123193322,-0.578014194965363,-0.1282779276371,-0.594507098197937
29.142751499,-0.370326161384583,-0.134386390447617,-0.656813502311707
29.162308843,-0.33123192191124,-0.0745233669877052,-0.666587054729462
29.181865406,-0.369104444980621,-0.0745233669877052,-0.704459607601166
29.201422749,-0.287250936031342,-0.155155196785927,-0.794865012168884
29.220980979,-0.113770298659801,-0.141716569662094,-0.913369357585907
29.24053827,0.064597100019455,-0.0513111688196659,-1.00010967254639
29.260094833,0.208757057785988,0.0574196428060532,-1.03065204620361
29.279652229,0.337034970521927,0.196692824363709,-1.01843512058258
29.299210406,0.433548837900162,0.189362645149231,-1.01354825496674
29.318767749,0.434770524501801,0.0561979487538338,-1.04286897182465
29.338324312,0.390789538621902,0.0378725305199623,-1.03431713581085
29.357881656,0.332148194313049,0.146603345870972,-0.957350373268127
29.377439885,0.223417386412621,0.0244338903576136,-0.899930715560913
29.396997177,0.0560452342033386,-0.327414125204086,-0.957350373268127
29.416553739,0.0841442123055458,-0.387277156114578,-1.0575293302536
29.436111135,0.426218688488007,-0.0488677807152271,-1.05142080783844
29.455669312,0.880689024925232,0.285876512527466,-0.901152431964874
29.475226656,1.12380623817444,0.390942245721817,-0.753327369689941
29.494783218,0.953990697860718,0.157598599791527,-0.857171416282654
29.514340562,0.67055755853653,-0.100178949534893,-1.14915645122528
29.533898791,0.594812512397766,-0.0891837030649185,-1.33118891716003
29.553456083,0.657118916511536,0.21257483959198,-1.22612321376801
29.573012645,0.545944750308991,0.419041216373444,-0.915812730789185
29.592569989,0.13912045955658,0.19302773475647,-0.71301144361496
29.612128218,-0.298246175050736,-0.228456869721413,-0.74233216047287
29.63168551,-0.422859013080597,-0.294428378343582,-0.865723252296448
29.651242072,-0.212727561593056,-0.108730815351009,-0.929251372814179
29.670799468,0.0951394587755203,-0.00977355614304543,-0.915812730789185
29.690357645,0.196540102362633,-0.108730815351009,-0.926807999610901
29.709914989,0.101247936487198,-0.276102960109711,-0.987892746925354
29.729471552,-0.0294733811169863,-0.395829021930695,-1.04653406143188
29.749028895,-0.0697892978787422,-0.367730051279068,-1.04897749423981
29.768587124,-0.0465771034359932,-0.222348406910896,-1.01354825496674
29.788144416,-0.034360159188509,-0.105065725743771,-0.964680552482605
29.807700979,-0.0710109919309616,-0.113617591559887,-0.906039178371429
29.827258322,-0.157751306891441,-0.119726061820984,-0.841289401054382
29.846816552,-0.262817025184631,-0.0183254182338715,-0.785091459751129
29.866373843,-0.327566832304001,0.10628741979599,-0.725228428840637
29.885930406,-0.345892250537872,0.166150450706482,-0.691020965576172
29.905487802,-0.301911264657974,0.156376898288727,-0.710568070411682
29.925045979,-0.265260428190231,0.10750912129879,-0.814412117004395
29.944603322,-0.24693500995636,0.0818535313010216,-0.958572089672089
29.964159885,-0.162638083100319,0.083075225353241,-1.06974625587463
29.983717229,-0.042912021279335,0.122169449925423,-1.0575293302536
30.003275458,0.0438282899558544,0.164928764104843,-0.997666299343109
30.022832749,0.0621537081897259,0.167372152209282,-0.970789015293121
30.042389312,0.00473406631499529,0.0696365907788277,-0.983005940914154
30.061946656,-0.0649025216698647,-0.0928487852215767,-0.978119194507599
30.081504885,-0.0661242157220841,-0.169815540313721,-0.921921253204346
30.101062177,-0.0148130459710956,-0.117282673716545,-0.807081937789917
30.120618739,0.134233683347702,-0.113617591559887,-0.743553817272186
30.140176135,0.355360388755798,-0.14782503247261,-0.771652817726135
30.159734312,0.383459359407425,-0.0598630309104919,-0.840067684650421
30.179291656,0.194096714258194,-0.0965138673782349,-0.877940237522125
30.198848218,0.0193943995982409,-0.392163932323456,-0.910925984382629
30.218405562,0.106134712696075,-0.576639831066132,-0.995222926139832
30.237963791,0.37368580698967,-0.356734812259674,-1.08440661430359
30.257521083,0.565491855144501,0.100178949534893,-1.0941801071167
30.277077645,0.516624093055725,0.365286648273468,-1.0477557182312
30.296635041,0.230747550725937,0.337187677621841,-0.986671030521393
30.316193218,-0.11743538826704,0.186919257044792,-0.929251372814179
30.335750562,-0.377656310796738,0.105065725743771,-0.853506326675415
30.355307124,-0.455844759941101,0.0366508364677429,-0.77653956413269
30.374864468,-0.336118698120117,-0.0794101431965828,-0.76187926530838
30.394422697,-0.0697892978787422,-0.185697570443153,-0.835180938243866
30.413979989,0.108578100800514,-0.155155196785927,-0.920699536800385
30.433536604,0.131790295243263,-0.0855186134576798,-0.940246641635895
30.453093947,0.0988045409321785,-0.0733016729354858,-0.909704267978668
30.472652124,0.0829225182533264,-0.0647498071193695,-0.917034447193146
30.492209468,0.114686571061611,-0.00610847258940339,-0.96956729888916
30.511766031,0.179436385631561,0.0549762547016144,-0.986671030521393
30.531323427,0.181879773736,0.0561979487538338,-0.913369357585907
30.550881604,0.0499367639422417,0,-0.797308385372162
30.570438947,-0.130874022841454,-0.0940704792737961,-0.711789786815643
30.58999551,-0.17974179983139,-0.130721315741539,-0.722784996032715
30.609552854,-0.0746760740876198,-0.0476460866630077,-0.782648026943207
30.629111083,0.034054733812809,0.053754560649395,-0.770431101322174
30.648668374,0.00106898276135325,0.0684148967266083,-0.686134159564972
30.668224937,-0.143090963363647,0.0366508364677429,-0.686134159564972
30.687782333,-0.207840785384178,0.112395897507668,-0.831515848636627
30.707340562,-0.0661242157220841,0.125834539532661,-0.968345642089844
30.726897854,0.136677071452141,-0.226013481616974,-0.945133447647095
30.746454416,0.220973998308182,-0.542432367801666,-0.892600536346436
30.766011812,0.219752296805382,-0.478904247283936,-0.981784284114838
30.785569989,0.236856028437614,-0.223570093512535,-1.15648663043976
30.805127333,0.20142687857151,0.00488677807152271,-1.2346750497818
30.824683895,0.0206160955131054,0.0952921733260155,-1.16626012325287
30.844241239,-0.220057725906372,0.0659715011715889,-1.04653406143188
30.863799468,-0.322680056095123,-0.00855186209082604,-1.00743985176086
30.883356812,-0.0771194696426392,-0.103844031691551,-1.10517537593842
30.902913374,0.371242433786392,-0.144159957766533,-1.22978830337524
30.922470718,0.591147422790527,-0.0171037241816521,-1.23100996017456
30.942028947,0.444544106721878,0.1270562261343,-1.10273206233978
30.961586239,0.102469630539417,0.118504367768765,-0.924364626407623
30.981142802,-0.121100470423698,-0.0745233669877052,-0.826629042625427
31.000700197,-0.140647575259209,-0.262664318084717,-0.832737505435944
31.020258427,-0.0587940476834774,-0.322527348995209,-0.899930715560913
31.039815718,-0.0111479628831148,-0.265107721090317,-0.95490700006485
31.059372281,-0.034360159188509,-0.196692824363709,-0.972010672092438
31.078929677,-0.0942231863737106,-0.21257483959198,-0.980562567710877
31.098487854,-0.233496367931366,-0.392163932323456,-1.08318495750427
31.118045197,-0.510821044445038,-0.693922460079193,-1.28965127468109
31.13760176,-0.78325891494751,-0.882063448429108,-1.42159426212311
31.157159104,-0.807692766189575,-0.764780759811401,-1.42770278453827
31.176717333,-0.582901000976563,-0.47157409787178,-1.36906147003174
31.196274624,-0.253043472766876,-0.331079214811325,-1.31286346912384
31.215831239,-0.0270299911499023,-0.30175855755806,-1.19313740730286
31.235388583,0.104913018643856,-0.10750912129879,-1.00743985176086
31.254946812,0.24785128235817,0.238230437040329,-0.837624311447144
31.274504104,0.356582075357437,0.482569336891174,-0.793643295764923
31.294060666,0.357803791761398,0.507003247737885,-0.875496804714203
31.313618062,0.290610581636429,0.415376126766205,-0.931694805622101
31.333176239,0.318709552288055,0.381168693304062,-0.802195191383362
31.352733583,0.451874256134033,0.43003648519516,-0.596950471401215
31.372290145,0.508072197437286,0.422706305980682,-0.400257676839829
31.391847489,0.556939959526062,0.326192438602448,-0.33184278011322
31.411405718,0.620468080043793,0.0940704792737961,-0.478446125984192
31.43096301,0.516624093055725,0.0134386401623487,-0.680025696754456
31.450519624,0.135455384850502,0.14782503247261,-0.725228428840637
31.470076968,-0.28602921962738,0.280989736318588,-0.62627112865448
31.489635197,-0.37276953458786,0.21379654109478,-0.600615561008453
31.509192489,-0.0734543800354004,0.0366508364677429,-0.778982937335968
31.528749052,0.319931238889694,-0.0574196428060532,-1.04653406143188
31.548306447,0.495855271816254,0.025655584409833,-1.1503781080246
31.567864624,0.504407107830048,0.200357899069786,-1.08440661430359
31.587421968,0.406671553850174,0.302980244159699,-0.892600536346436
31.606978531,0.178214684128761,0.210131451487541,-0.585955262184143
31.626535874,-0.112548604607582,0.0183254182338715,-0.278088212013245
31.646094104,-0.248156696557999,-0.21379654109478,-0.113159455358982
31.665651395,-0.116213694214821,-0.434923261404038,-0.186461120843887
31.685207958,0.0621537081897259,-0.481347650289536,-0.339172929525375
31.704765354,0.064597100019455,-0.310310393571854,-0.390484124422073
31.724323583,-0.0881147161126137,-0.0464243926107883,-0.304965496063232
31.743880874,-0.248156696557999,0.10750912129879,-0.179130956530571
31.763437437,-0.336118698120117,0.134386390447617,-0.132706567645073
31.782994833,-0.367882758378983,0.119726061820984,-0.177909269928932
31.80255301,-0.386208176612854,0.135608091950417,-0.246324151754379
31.822110354,-0.366661071777344,0.211353152990341,-0.298857033252716
31.841666916,-0.227387890219688,0.329857528209686,-0.356276661157608
31.86122426,0.00229067727923393,0.488677799701691,-0.546860992908478
31.880782489,0.192875027656555,0.603517115116119,-0.934138178825378
31.900339781,0.262511610984802,0.46668729186058,-1.28720784187317
31.919896343,0.329704821109772,0.0806318372488022,-1.33241057395935
31.939453739,0.519067466259003,-0.338409394025803,-1.10761880874634
31.959011968,0.742637574672699,-0.586413383483887,-0.818077206611633
31.97856926,0.921004951000214,-0.627950966358185,-0.683690786361694
31.998125822,0.980867981910706,-0.608403861522675,-0.656813502311707
32.017683218,0.874580562114716,-0.653606593608856,-0.609167456626892
32.037241395,0.698656558990479,-0.756228923797607,-0.51998370885849
32.056798739,0.538614571094513,-0.795323133468628,-0.429578334093094
32.076355302,0.313822776079178,-0.643832981586456,-0.319625824689865
32.095912645,-0.0392469353973866,-0.194249421358109,-0.0435228683054447
32.115470874,-0.369104444980621,-0.0342074483633041,0.247240424156189
32.135028166,-0.415528833866119,-0.404380887746811,0.34986275434494
32.154584781,-0.229831278324127,-0.393385648727417,0.293664813041687
32.174142124,-0.132095724344254,0.19180603325367,0.191042482852936
32.193700354,-0.218836024403572,0.359178185462952,0.0933069214224815
32.213257645,-0.207840785384178,-0.0671931952238083,0.0212269425392151
32.232814208,-0.0551289655268192,-0.17103722691536,-0.0239757541567087
32.252371604,0.0120642334222794,0.125834539532661,-0.201121464371681
32.271929833,-0.025808297097683,0.130721315741539,-0.372158706188202
32.291487124,-0.0697892978787422,-0.0745233669877052,-0.229220435023308
32.311043687,-0.0795628577470779,0.10628741979599,0.178825542330742
32.330601083,-0.116213694214821,0.444696813821793,0.509904742240906
32.350159312,-0.256708562374115,0.307867020368576,0.527008473873138
32.369716604,-0.380099713802338,-0.0415376126766205,0.450041711330414
32.389273166,-0.314128190279007,-0.179589092731476,0.473253905773163
32.408830562,-0.107661828398705,0.0733016729354858,0.475697308778763
32.428388791,0.0462716780602932,0.344517856836319,0.362079709768295
32.447946083,0.0255028735846281,0.283433139324188,0.219141453504562
32.467502645,-0.0734543800354004,0.100178949534893,0.111632339656353
32.487060041,-0.072232685983181,0.101400643587112,0.0798682793974876
32.50661827,0.0352764278650284,0.265107721090317,0.0590994730591774
32.526175562,0.0963611528277397,0.349404633045197,-0.0154238929972053
32.545732177,0.0926960706710815,0.219905018806458,-0.0398577824234962
32.56528952,0.126903519034386,0.118504367768765,0.0529909990727901
32.584847749,0.189209938049316,0.139273181557655,0.164165198802948
32.604405093,0.190431639552116,0.138051480054855,0.221584841609001
32.623961656,0.108578100800514,0.0781884491443634,0.291221439838409
32.643518999,0.0328330397605896,0.0586413368582726,0.41949936747551
32.663077229,0.0389415137469769,0.108730815351009,0.5282301902771
32.682634572,0.20264858007431,0.135608091950417,0.473253905773163
32.702191135,0.398119688034058,0.131943002343178,0.305881768465042
32.721748531,0.429883748292923,0.17103722691536,0.187377393245697
32.74130676,0.285723805427551,0.295650064945221,0.155613332986832
32.760864052,0.0487150698900223,0.351848006248474,0.176382139325142
32.780420666,-0.163859784603119,0.186919257044792,0.100637085735798
32.79997801,-0.276255667209625,-0.0305423624813557,0.00900999736040831
32.819536239,-0.234718054533005,-0.204022988677025,0.107967250049114
32.839093583,-0.168746560811996,-0.29931515455246,0.366966485977173
32.858650145,-0.211505860090256,-0.238230437040329,0.671168446540833
32.878207541,-0.508377611637116,-0.269994497299194,0.761573791503906
32.89776577,-0.943300902843475,-0.605960488319397,0.507461369037628
32.917323114,-0.945744276046753,-0.498451352119446,0.11774080991745
32.936879677,-0.0685676038265228,0.594965219497681,0.0456608310341835
32.956437072,0.807387351989746,1.28400099277496,-0.0215323660522699
32.975995302,0.362690567970276,0.676818788051605,-0.352611571550369
32.995552645,-0.740499615669251,-0.0378725305199623,-0.502879977226257
33.015109208,-0.883437871932983,-0.0439810007810593,-0.462564080953598
33.034666604,0.0145076224580407,0.290763288736343,-0.583511829376221
33.054224833,0.467756301164627,0.309088706970215,-0.629936218261719
33.073782177,-0.116213694214821,0.0586413368582726,-0.337951242923737
33.093338739,-0.686745047569275,-0.0696365907788277,0.0346655808389187
33.112896135,-0.455844759941101,-0.0500894747674465,0.0517693050205708
33.132454364,0.186766549944878,0.00855186209082604,-0.0374143943190575
33.152011708,0.494633555412293,0.151490122079849,0.0529909990727901
33.17156827,0.35169529914856,-0.0342074483633041,0.120184198021889
33.191125666,-0.0795628577470779,-0.522885262966156,-0.0203106720000505
33.210683895,-0.39231663942337,-0.728129923343658,-0.215781792998314
33.230241239,-0.348335653543472,-0.482569336891174,-0.229220435023308
33.249797802,-0.0746760740876198,-0.131943002343178,-0.0618482865393162
33.269355197,0.144007235765457,0.00733016710728407,0.0713164210319519
33.288913427,0.119573347270489,-0.0525328628718853,0.0896418318152428
33.30847077,-0.0453554093837738,-0.108730815351009,0.0456608310341835
33.328027385,-0.173633337020874,-0.0965138673782349,0.0163401644676924
33.347584781,-0.161416381597519,-0.0439810007810593,0.0102316914126277
33.36714301,-0.0587940476834774,-0.0280989743769169,0.0102316914126277
33.386700354,0.0255028735846281,-0.113617591559887,0.049325916916132
33.406256916,0.0865876004099846,-0.150268420577049,0.104302167892456
33.425814312,0.106134712696075,-0.109952509403229,0.172717064619064
33.445372541,0.100026234984398,-0.0684148967266083,0.232580095529556
33.464929885,0.0511584579944611,-0.105065725743771,0.279004484415054
33.484486499,-0.0221432130783796,-0.19180603325367,0.336424142122269
33.504043895,0.0230594836175442,-0.117282673716545,0.384070217609406
33.523602124,0.235634326934814,0.0659715011715889,0.41705596446991
33.543159468,0.550831496715546,0.17103722691536,0.385291904211044
33.562716083,0.727977216243744,0.0403159186244011,0.213032975792885
33.582273479,0.523954212665558,-0.160041987895966,-0.0471879504621029
33.601831708,0.198983490467072,-0.216239929199219,-0.220668569207191
33.621389052,0.0120642334222794,-0.229678571224213,-0.26587125658989
33.640945614,-0.183406889438629,-0.432479858398438,-0.372158706188202
33.66050301,-0.337340384721756,-0.224791795015335,-0.46012070775032
33.680061291,0.14034216105938,1.00667631626129,-0.0704001486301422
33.699618635,0.769514858722687,1.34386396408081,0.346197694540024
33.719175197,0.593590795993805,0.47157409787178,0.298551589250565
33.738732593,-0.0673459097743034,-0.323749035596848,0.197150945663452
33.758290874,-0.212727561593056,-0.36284327507019,0.238688573241234
33.777848166,0.186766549944878,0.27732464671135,0.0627645552158356
33.797404781,0.174549609422684,0.368951737880707,-0.237772300839424
33.816962177,-0.450957983732224,0.0574196428060532,-0.314739048480988
33.836520406,-1.02881944179535,0.00122169451788068,-0.0642916709184647
33.856077749,-1.00805068016052,-0.0476460866630077,0.220363155007362
33.875634364,-0.669641315937042,-0.0219905003905296,0.15927842259407
33.89519176,-0.373991221189499,-0.0818535313010216,-0.171800792217255
33.914749989,-0.105218440294266,-0.155155196785927,-0.37460207939148
33.934307333,0.150115713477135,-0.0488677807152271,-0.271979749202728
33.953863947,0.277171939611435,0.00488677807152271,-0.0581832006573677
33.973421343,0.234412640333176,0.0109952501952648,0.0517693050205708
33.992979624,0.181879773736,0.0342074483633041,0.0835333615541458
34.012536968,0.229525864124298,0.0989572554826737,0.13973131775856
34.032093531,0.346808522939682,0.175924003124237,0.216698065400124
34.051650927,0.435992240905762,0.155155196785927,0.255792289972305
34.071209208,0.520289123058319,0.0867403075098991,0.236245170235634
34.090766552,0.585038959980011,0.118504367768765,0.222806543111801
34.110323114,0.514180660247803,0.278546363115311,0.233801782131195
34.12988051,0.3113794028759,0.381168693304062,0.254570603370667
34.149438791,0.251516371965408,0.179589092731476,0.237466871738434
34.168996135,0.504407107830048,-0.00488677807152271,0.0981936976313591
