Time (s),Acceleration x (m/s^2),Acceleration y (m/s^2),Acceleration z (m/s^2)
0.031180636,-0.416949331760407,0.0795613527297974,9.74297523498535
0.05073923,0.401396006345749,-0.135792687535286,9.6592264175415
0.070296938,0.0400797799229622,0.31645080447197,9.41994476318359
0.089853918,-0.562911510467529,0.639481842517853,9.98704338073731
0.109411678,-0.218345060944557,0.933799028396606,10.2095756530762
0.128970324,0.324825674295425,1.18983101844788,10.4632148742676
0.148528032,0.781854808330536,1.10608232021332,10.5278215408325
0.168085011,-0.220737889409065,1.08693969249725,11.5160570144653
0.187642772,-1.3094722032547,1.02951192855835,11.7314109802246
0.207201366,-1.8406788110733,0.840478956699371,11.2337045669556
0.226759074,-1.1132607460022,0.503090977668762,11.4179515838623
0.246316053,0.324825674295425,-0.188434779644012,11.5710916519165
0.265873813,0.427717059850693,-0.655035197734833,11.9324083328247
0.285432407,-0.627517759799957,-0.970887780189514,12.0209426879883
0.304990116,-0.96012008190155,-1.12163555622101,12.0424785614014
0.324547095,-0.586839735507965,-1.2197413444519,11.6093769073486
0.344104855,-0.510269403457642,-1.06181502342224,10.5924272537231
0.363663449,-0.77347993850708,-0.810568690299988,9.56112098693848
0.383221157,-0.897906720638275,-0.511465847492218,9.18305492401123
0.402778136,-0.531804859638214,-0.645463883876801,9.16152000427246
0.422335897,-0.471984267234802,-0.741176843643189,9.18305492401123
0.441894491,-0.933799028396606,-0.530608415603638,9.47737216949463
0.461452199,-1.46261286735535,-0.202791720628738,9.89850902557373
0.481009126,-1.55354011058807,0.0101694958284497,9.77647495269775
0.500566886,-1.13240337371826,0.065204419195652,9.22373294830322
0.520125532,-0.639481842517853,0.0436690114438534,9.08973503112793
0.539683188,-0.608375132083893,0.0987039357423782,9.4390869140625
0.559240168,-0.49351966381073,0.189631193876266,9.44147968292236
0.578797928,-0.457627326250076,0.223130717873573,8.97966480255127
0.598356522,-0.799800992012024,0.321236431598663,8.65663433074951
0.61791423,-1.0438688993454,0.407378047704697,8.56331443786621
0.637471157,-1.01994061470032,0.421734988689423,8.71645450592041
0.657028918,-0.864407181739807,0.299701035022736,9.15673446655273
0.676587511,-0.857228696346283,0.232702001929283,9.28355407714844
0.69614522,-1.12043917179108,0.263808697462082,8.94377326965332
0.715702147,-1.20658087730408,0.462412983179092,8.46999359130859
0.735259907,-0.873978495597839,0.701695263385773,8.32881736755371
0.754818501,-0.469591438770294,0.885942578315735,8.72124004364014
0.774376209,-0.550947427749634,0.797408163547516,9.18544769287109
0.793933136,-1.02233350276947,0.622732102870941,9.66879844665527
0.813490897,-1.19700956344605,0.515055060386658,9.8410816192627
0.833049491,-1.05583298206329,0.560518682003021,9.72861862182617
0.852607147,-0.687338292598724,0.663410067558289,9.55872821807861
0.872164126,-0.763908624649048,0.684945464134216,9.39362335205078
0.891721886,-1.10608232021332,0.529412031173706,9.30987453460693
0.911280428,-1.18025982379913,0.199202477931976,9.17109107971191
0.930838136,-0.847657442092896,0.26620152592659,9.52762126922607
0.950395063,-0.804586589336395,0.311665147542954,10.1090774536133
0.969952824,-0.878764092922211,0.335593372583389,10.3914308547974
0.989511418,-0.838086128234863,0.400199592113495,10.3603239059448
1.009069126,-0.306879490613937,0.52462637424469,10.0779705047607
1.028626053,0.152542442083359,0.842871785163879,10.1353988647461
1.048183813,0.0161515530198813,1.03429758548737,10.334002494812
1.067742355,-0.708873689174652,0.577268481254578,10.2981100082397
1.087300063,-0.883549749851227,-0.28175488114357,10.9896364212036
1.106856991,-0.337986201047897,-0.856032311916351,12.2674036026001
1.126414751,-0.0771685317158699,-0.616750061511993,12.489935874939
1.145973345,-0.371485710144043,-0.164506554603577,11.86301612854
1.165531001,-0.491126835346222,-0.0855434089899063,11.5375928878784
1.185087928,-0.292522579431534,-0.46839502453804,11.8175525665283
1.204645688,-0.500698149204254,-0.741176843643189,12.3535451889038
1.224204282,-1.15872430801392,-0.851246654987335,12.6095771789551
1.243761938,-1.05344021320343,-1.1742776632309,12.5736846923828
1.263318918,-0.227916359901428,-1.36570358276367,12.2554397583008
1.282876626,0.243469700217247,-0.99481600522995,11.3102741241455
1.30243522,0.372682124376297,-0.461216568946838,9.83390331268311
1.321992876,0.884746193885803,-0.485144793987274,8.81934642791748
1.341549855,1.14077818393707,-0.834496915340424,8.81934642791748
1.361107563,0.884746193885803,-0.844068169593811,9.27637481689453
1.380666157,0.822532773017883,-0.760319411754608,9.01077175140381
1.400223813,0.839282512664795,-0.762712240219116,8.85523796081543
1.419780741,0.865603566169739,-0.753140926361084,9.22612571716309
1.439338501,0.652642369270325,-0.48993045091629,9.4390869140625
1.458897043,-0.0843469947576523,-0.035294134169817,9.1447696685791
1.478454751,-0.54376894235611,0.402592420578003,8.7571325302124
1.498011678,0.0137587301433086,0.397806763648987,8.60159873962402
1.517569386,0.643071115016937,0.134596273303032,8.58724212646484
1.53712798,0.329611331224442,0.218345060944557,8.42213726043701
1.556685636,-0.582054078578949,0.629910588264465,8.10628509521484
1.576242563,-0.658624410629273,0.82372921705246,7.90050220489502
1.595800324,0.616750061511993,0.55573308467865,8.31924629211426
1.615358866,1.41356003284454,0.101096756756306,9.1447696685791
1.634916574,1.21256291866303,0.103489577770233,9.45105171203613
1.654473501,0.724427044391632,0.31645080447197,8.91266632080078
1.674031209,0.765105068683624,0.467198610305786,8.45085144042969
1.693589803,0.999601662158966,0.404985219240189,8.40538787841797
1.713147459,0.686141908168793,0.239880472421646,8.73320484161377
1.732704386,-0.0939182862639427,0.385842651128769,9.33858871459961
1.752262095,-0.558125853538513,0.799800992012024,9.48933601379395
1.771820688,-0.321236431598663,1.23050904273987,9.32901763916016
1.791378345,0.0783649384975433,1.45543432235718,9.4390869140625
1.810935272,0.317647218704224,1.44107747077942,9.90090179443359
1.83049298,0.188434779644012,1.61814630031586,10.1569337844849
1.850051574,0.209970191121101,1.78564393520355,9.78843879699707
1.86960923,0.437288343906403,1.58943247795105,9.54437160491943
1.889166157,0.78903329372406,1.06301140785217,9.91525840759277
1.908723866,0.78903329372406,0.728016316890717,10.2406826019287
1.928282407,0.94456672668457,0.931406199932098,10.0253286361694
1.947840063,0.932602643966675,1.09172534942627,10.0037937164307
1.967396991,0.303290277719498,0.684945464134216,10.8723878860474
1.986954751,-0.373878538608551,-0.202791720628738,12.7746820449829
2.006513293,-0.14656038582325,-0.937388241291046,13.9256296157837
2.026070949,0.0448654256761074,-0.970887780189514,13.4901361465454
2.045627876,0.387039065361023,-0.724427044391632,12.9110727310181
2.065185584,0.762712240219116,-0.638285458087921,12.6023988723755
2.084744126,0.693320333957672,-1.15992081165314,12.0233354568481
2.104301782,0.492323249578476,-2.01655125617981,11.8989086151123
2.123858709,0.446859627962112,-2.72482681274414,12.1310129165649
2.143416418,0.064008004963398,-2.88514590263367,12.3607234954834
2.162975011,-0.522233545780182,-2.24147653579712,11.9060869216919
2.182532668,-0.613160789012909,-1.27238345146179,10.676176071167
2.202089543,-0.206380948424339,-0.547358155250549,9.13519859313965
2.221647251,0.0807577669620514,-0.365503668785095,7.89571666717529
2.241205845,-0.335593372583389,-0.662213683128357,7.82871770858765
2.260763501,-0.988833963871002,-1.13120687007904,9.10169887542725
2.280320428,-1.27118706703186,-1.3872389793396,10.5756778717041
2.299878084,-0.912263631820679,-1.36809635162354,10.5684995651245
2.319436678,-0.756730139255524,-1.00678014755249,9.36969566345215
2.338994334,-0.515055060386658,-0.700498819351196,8.57288551330566
2.358551209,-0.326022088527679,-0.609571576118469,8.26181793212891
2.378108918,-0.287736922502518,-0.669392108917236,8.03928565979004
2.397667459,-0.065204419195652,-0.891924619674683,7.07019281387329
2.417225116,0.348753899335861,-0.791426062583923,6.07717132568359
2.436782043,-0.21595224738121,-0.779461979866028,6.85962438583374
2.456339751,-0.766301453113556,-0.877567708492279,8.25224685668945
2.475898293,-1.00558376312256,-0.585643351078033,8.28813934326172
2.495455949,-0.816550731658936,0.0939182862639427,8.0081787109375
2.515012876,-0.572482824325562,0.404985219240189,8.44128036499023
2.534570532,-0.333200544118881,0.22552353143692,8.81695365905762
2.554129126,-0.28534409403801,0.0269192550331354,8.53938579559326
2.57368673,-0.385842651128769,0.00299102836288512,8.68295478820801
2.593243657,-0.393021106719971,-0.233898416161537,9.44626522064209
2.612801366,-0.287736922502518,-0.480359137058258,10.4297161102295
2.632359907,-0.328414916992188,-0.47796630859375,10.9106731414795
2.651917563,-0.579661309719086,-0.238684058189392,10.6953191757202
2.671474438,-0.594018220901489,-0.209970191121101,11.1116704940796
2.691032147,-0.381056994199753,-0.798604547977448,12.0783700942993
2.710590688,-0.141774743795395,-1.03788685798645,12.5736846923828
2.730148345,-0.412163704633713,-0.253040999174118,12.0113716125488
2.74970522,-0.2757728099823,0.457627326250076,11.0733852386475
2.769262928,0.389431893825531,0.481555551290512,10.9250297546387
2.78882147,0.779461979866028,0.0987039357423782,11.5686988830566
2.808379074,0.28175488114357,-0.499501734972,12.1621189117432
2.827936001,-0.340379029512405,-1.18145620822907,12.9637145996094
2.847493709,-0.290129750967026,-1.85383939743042,13.4063873291016
2.867052199,0.16211374104023,-2.073979139328,12.7459678649902
2.886609855,0.712462961673737,-1.57148623466492,11.1451692581177
2.906166782,1.16709923744202,-0.812961518764496,9.2189474105835
2.925724438,1.29631161689758,-0.25064817070961,7.68754100799561
2.94528298,1.21256291866303,-0.219541475176811,7.44825887680054
2.964840636,1.00199449062347,-0.765105068683624,8.65663433074951
2.984397511,0.839282512664795,-1.12163555622101,10.0492572784424
3.00395522,0.487537622451782,-1.17906332015991,10.5278215408325
3.023513709,0.334396958351135,-0.781854808330536,9.95593643188477
3.043071366,0.329611331224442,-0.336789786815643,9.1112699508667
3.062628241,0.573679208755493,-0.238684058189392,8.65424156188965
3.082185949,0.79621171951294,-0.432502686977387,8.65184879302979
3.101744491,0.525822758674622,-0.580857694149017,9.07298564910889
3.121302095,0.00658026244491339,-0.561715126037598,9.31466007232666
3.14085897,-0.141774743795395,-0.800997376441956,8.82173919677734
3.160416678,0.28175488114357,-1.0235298871994,8.14217758178711
3.17997522,1.00678014755249,-0.908674418926239,7.90768051147461
3.199532824,1.33938252925873,-0.492323249578476,7.77607536315918
3.219089699,0.932602643966675,0.14656038582325,7.52961444854736
3.238647407,0.142971158027649,0.689731121063232,7.35972404479981
3.258205897,-0.0675972402095795,0.601196706295013,7.13001346588135
3.277763553,0.25064817070961,0.309272319078445,7.59661388397217
3.297320428,0.47796630859375,0.321236431598663,8.55374240875244
3.316878084,0.166899383068085,0.359521597623825,9.55872821807861
3.336436626,-0.797408163547516,0.421734988689423,10.3651094436646
3.35599423,-1.25922286510468,0.670588552951813,10.1162557601929
3.375551157,-0.0843469947576523,0.795015335083008,9.77647495269775
3.395108813,0.856032311916351,0.450448870658875,10.7862462997437
3.414667355,0.650249540805817,0.13698910176754,12.1573333740234
3.434224959,-0.0819541737437248,-0.30089744925499,13.3537445068359
3.453781834,-0.385842651128769,-0.786640465259552,14.3683013916016
3.473339491,-0.058025948703289,-1.21017003059387,14.483157157898
3.492898032,-0.0412761904299259,-1.14077818393707,13.717453956604
3.512455636,-0.144167557358742,-0.494716078042984,12.9852504730225
3.532012511,-0.311665147542954,-0.865603566169739,11.9539432525635
3.55157022,-0.51266223192215,-1.86580348014832,11.6117696762085
3.571128709,-0.594018220901489,-2.41615271568298,12.0568351745605
3.590686313,-0.541376113891602,-2.16490626335144,11.7314109802246
3.610243188,-0.672981381416321,-1.3992030620575,10.2095756530762
3.629800897,-0.71126651763916,-0.80817586183548,8.72841835021973
3.649359386,-0.0771685317158699,-0.765105068683624,8.19481945037842
3.668916991,0.26979073882103,-1.20777726173401,8.40060234069824
3.688473866,-0.278165638446808,-1.60259294509888,8.91984462738037
3.708031574,-1.13718891143799,-1.50927293300629,9.80518913269043
3.727590063,-1.18743824958801,-1.25802648067474,9.93918704986572
3.747147668,-0.76151579618454,-1.15513515472412,9.35773086547852
3.766704543,-0.541376113891602,-0.978066265583038,9.14716243743897
3.786262199,-0.562911510467529,-0.822532773017883,8.85523796081543
3.805820741,-0.656231582164764,-0.585643351078033,8.37428092956543
3.825378345,-0.661017239093781,-0.288933336734772,7.78564691543579
3.84493522,-0.517447888851166,0.0197407864034176,7.156334400177
3.864492876,-0.340379029512405,0.299701035022736,6.6251277923584
3.884051366,-0.424127817153931,0.340379029512405,6.54855728149414
3.903609022,-0.756730139255524,0.151346027851105,7.04387187957764
3.923165845,-0.900299549102783,0.0364905446767807,7.9651083946228
3.942723553,-0.964905738830566,0.0747757107019424,8.80977439880371
3.962282043,-1.0845468044281,0.0699900612235069,9.0323076248169
3.981839647,-1.03669035434723,-0.437288343906403,9.5132646560669
4.001396522,-0.866800010204315,-0.848853826522827,10.7120685577393
4.020954178,-0.517447888851166,-0.937388241291046,12.0352993011475
4.040512668,0.0137587301433086,-1.01874423027039,13.0067853927612
4.060070272,-0.065204419195652,-0.908674418926239,12.9206438064575
4.079627147,-0.579661309719086,-0.621535658836365,12.4923286437988
4.099184803,-0.804586589336395,-0.686141908168793,12.3798666000366
4.118743293,-0.297308206558228,-0.461216568946838,12.4636154174805
4.138300897,0.276969224214554,0.105882398784161,11.7864465713501
4.157857772,0.193220421671867,0.49351966381073,10.8819589614868
4.177415428,0.207577362656593,0.952941596508026,10.6905336380005
4.196973918,0.542572557926178,0.589232563972473,10.594820022583
4.216531522,0.793818891048431,-0.186041966080666,10.4943218231201
4.236088397,0.674177765846252,-1.52362978458405,10.9082803726196
4.255646053,0.817747116088867,-2.61954259872437,11.903694152832
4.275204543,1.16709923744202,-2.6003999710083,13.0642137527466
4.294762147,1.43270254135132,-1.65762794017792,12.1549406051636
4.314319022,1.99501585960388,-0.650249540805817,9.51805019378662
4.333876678,2.61954259872437,-0.226719945669174,8.23310470581055
4.353435168,2.60279273986816,-0.623928487300873,8.49392223358154
4.372992772,1.72941255569458,-0.858425140380859,8.41974449157715
4.392549595,0.853639483451843,-0.0137587301433086,7.31186771392822
4.412107251,0.485144793987274,0.785444021224976,6.65144872665405
4.431665741,0.253040999174118,0.591625392436981,7.05822849273682
4.451223345,-0.326022088527679,0.213559418916702,7.55593585968018
4.47078022,-0.517447888851166,0.132203444838524,7.64447021484375
4.490337876,-0.0723828822374344,-0.265005111694336,7.79521799087524
4.509896366,-0.0723828822374344,-0.384646236896515,8.87438106536865
4.52945397,-0.335593372583389,-0.157328084111214,9.63051319122315
4.549010793,-0.479162722826004,0.0269192550331354,9.1112699508667
4.568568449,-0.129810631275177,0.201595306396484,8.40778064727783
4.588126938,0.071186475455761,0.235094830393791,8.78584671020508
4.607684543,0.0544367134571075,0.44327038526535,9.56829929351807
4.627241366,0.126221388578415,0.433699101209641,8.89591598510742
4.646799022,0.272183567285538,0.407378047704697,8.2761754989624
4.666357511,0.114257283508778,0.364307254552841,9.27158927917481
4.685915116,0.109471634030342,0.208773776888847,10.49671459198
4.705471991,0.444466799497604,0.0747757107019424,10.1282196044922
4.725029595,0.391824722290039,0.31645080447197,9.57308483123779
4.744588084,0.370289295911789,0.536590456962585,10.4751796722412
4.764145688,0.542572557926178,0.637089014053345,11.7170543670654
4.783702563,0.686141908168793,0.438484758138657,12.1262273788452
4.803260168,1.01156580448151,0.550947427749634,11.7409820556641
4.822818657,0.949352383613586,0.668195724487305,12.0352993011475
4.842376261,0.638285458087921,0.701695263385773,12.3894376754761
4.861933136,0.643071115016937,0.996012449264526,11.7122688293457
4.881490741,0.384646236896515,1.18743824958801,10.4488582611084
4.90104923,-0.488734036684036,-0.0759721174836159,10.0468645095825
4.920606834,-1.15872430801392,-2.15294218063355,12.7196474075317
4.940163657,-1.05822587013245,-3.08375024795532,14.4927282333374
4.959721313,-0.835693299770355,-2.33718943595886,12.3655090332031
4.979279803,-0.689731121063232,-0.619142830371857,9.49890804290772
4.998837407,-0.383449822664261,0.476769924163818,7.74736166000366
5.01839423,-0.0963111147284508,0.469591438770294,7.43868732452393
5.037951886,-0.0843469947576523,-0.312861561775208,8.37188816070557
5.057510376,-0.0532403029501438,-0.853639483451843,9.19262599945068
5.077067928,0.011365907266736,-0.990030348300934,9.38644504547119
5.096624803,0.284147679805756,-0.906281590461731,9.29551792144775
5.116182407,0.643071115016937,-0.688534736633301,9.06819915771484
5.135740897,0.418145745992661,-0.332004129886627,8.93898677825928
5.155298501,-0.110668048262596,-0.403788834810257,8.89352321624756
5.174855324,-0.393021106719971,-0.712462961673737,8.77866840362549
5.19441298,-0.6801598072052,-0.54017972946167,8.54895687103272
5.213971418,-1.2400803565979,-0.193220421671867,8.19721221923828
5.233529022,-1.44586312770844,0.203988134860992,7.56311416625977
5.253085845,-1.05104732513428,0.359521597623825,7.17547702789307
5.272643501,-0.548554599285126,0.323629260063171,7.46022272109985
5.292201991,-0.649053156375885,0.462412983179092,8.23310470581055
5.311759543,-1.18025982379913,0.570089995861054,9.0179500579834
5.331316418,-1.25922286510468,0.57487565279007,9.28833961486816
5.350874022,-0.598803877830505,-0.0424726009368897,9.69751167297363
5.370432511,0.00658026244491339,-0.686141908168793,10.659426689148
5.389990063,-0.263808697462082,-0.903888761997223,11.6380910873413
5.409546938,-0.756730139255524,-0.585643351078033,11.8175525665283
5.429104543,-0.510269403457642,-0.0257228426635265,11.666805267334
5.448663032,-0.0149551415815949,0.122632160782814,11.7505540847778
5.468220584,0.221934303641319,-0.370289295911789,11.8247308731079
5.487777459,-0.287736922502518,-0.635892629623413,12.2123689651489
5.507335063,-1.17308127880096,-0.492323249578476,12.5593280792236
5.526893553,-1.02472627162933,-0.456430912017822,12.7148609161377
5.546451105,-0.251844584941864,-0.982851922512054,12.2530469894409
5.566007928,0.0927218794822693,-1.77009057998657,11.8414812088013
5.585565584,0.274576395750046,-1.88255321979523,11.3054885864258
5.605124022,0.499501734972,-0.966102123260498,10.2454681396484
5.624681626,1.19581305980682,0.160917326807976,9.06102085113525
5.644238449,2.23429822921753,0.0149551415815949,8.48435115814209
5.663796053,1.80837571620941,-0.982851922512054,8.62313461303711
5.683354543,-0.239880472421646,-0.432502686977387,10.2598257064819
5.702912095,-1.86460709571838,-0.0999003425240517,10.9298152923584
5.722468918,-0.957727253437042,-0.209970191121101,9.55394268035889
5.742026574,0.308075904846191,-0.382253408432007,8.50110054016113
5.761585063,0.485144793987274,-0.408574461936951,8.63270568847656
5.781142616,0.387039065361023,-0.415752947330475,8.70688343048096
5.800699438,0.401396006345749,-0.351146727800369,8.31446075439453
5.820257043,0.389431893825531,-0.133399859070778,8.26899719238281
5.839815532,0.408574461936951,-0.147756800055504,8.64227676391602
5.859373084,0.501894533634186,-0.442073971033096,8.71406173706055
5.878929907,0.521037101745606,-0.45882374048233,8.46760082244873
5.898487511,0.511465847492218,-0.164506554603577,8.34078121185303
5.918046001,0.389431893825531,0.242273285984993,8.46520805358887
5.937603553,0.0975075215101242,0.562911510467529,8.65663433074951
5.957160376,-0.129810631275177,0.641874670982361,8.84088134765625
5.97671798,-0.156131684780121,0.558125853538513,9.2787675857544
5.99627647,-0.144167557358742,0.333200544118881,9.87458038330078
6.015834022,-0.0963111147284508,0.218345060944557,10.1665048599243
6.035390845,0.147756800055504,0.347557485103607,10.2837533950806
6.054948449,0.564107954502106,0.572482824325562,10.6331052780151
6.074506938,0.717248558998108,0.438484758138657,11.1978120803833
6.094064491,0.640678286552429,0.251844584941864,11.544771194458
6.113621313,0.812961518764496,0.282951265573502,11.1451692581177
6.133178918,1.40638148784637,0.328414916992188,10.9944219589233
6.152737407,1.51884412765503,0.749551713466644,11.1978120803833
6.172294959,1.07377910614014,1.19940233230591,10.8628168106079
6.191851782,0.97567343711853,0.649053156375885,9.72383308410645
6.211409386,0.174077853560448,-1.59780728816986,10.7312116622925
6.230967824,-1.05104732513428,-3.09571433067322,14.2414817810059
6.250525376,-1.20179522037506,-3.11964249610901,14.8684015274048
6.270082199,-0.809372246265411,-2.0524435043335,12.2339038848877
6.289639803,-0.682552635669708,-0.652642369270325,9.66640567779541
6.309198293,-0.586839735507965,0.117846518754959,8.03210735321045
6.328755845,-0.589232563972473,0.062811590731144,7.74257564544678
6.348312668,-0.725623488426209,-0.384646236896515,8.43649482727051
6.367870272,-1.16590285301209,-0.77706915140152,9.28833961486816
6.387428709,-1.16829562187195,-0.791426062583923,9.60419178009033
6.406986261,-0.632303357124329,-0.628714144229889,9.12323474884033
6.426543084,-0.237487643957138,-0.274576395750046,8.5369930267334
6.446100688,0.0329013131558895,-0.176470667123795,8.40299510955811
6.465659178,0.219541475176811,-0.427717059850693,8.59202766418457
6.48521673,0.26979073882103,-0.568893611431122,8.84327411651611
6.504773553,0.176470667123795,-0.50907301902771,8.87677383422852
6.524331157,-0.0197407864034176,-0.47796630859375,8.60877799987793
6.543889595,-0.0699900612235069,-0.415752947330475,8.61834907531738
6.563447147,-0.381056994199753,-0.367896467447281,8.68774127960205
6.58300397,-0.601196706295013,-0.109471634030342,8.7571325302124
6.602561574,-0.756730139255524,0.201595306396484,8.77627563476563
6.622120011,-0.902692317962647,0.50548380613327,8.91027355194092
6.641677563,-1.12283205986023,0.744766056537628,9.05862808227539
6.661234386,-1.09651100635529,0.644267499446869,9.22373294830322
6.680791991,-1.00079810619354,0.448056042194366,9.54437160491943
6.700350428,-1.37647128105164,0.436091929674149,10.3148603439331
6.71990798,-1.38843536376953,0.467198610305786,10.8077812194824
6.739464803,-1.00797653198242,0.196809664368629,10.594820022583
6.759022407,-0.974476993083954,-0.142971158027649,10.5996065139771
6.778580845,-1.10847508907318,-0.12143574655056,11.3964157104492
6.798138397,-0.967298567295075,0.192024022340775,12.1046915054321
6.81769522,-0.594018220901489,0.230309173464775,11.7361965179443
6.837252824,0.114257283508778,0.369092881679535,10.9250297546387
6.856811261,0.46839502453804,-0.104685992002487,10.3052892684937
6.876368813,-0.282951265573502,-0.664606511592865,11.8247308731079
6.895925636,-1.10847508907318,-1.70548439025879,13.9926290512085
6.915483241,-0.984048306941986,-2.66022062301636,14.5692987442017
6.935041678,-0.467198610305786,-2.31086850166321,13.4111728668213
6.95459923,-0.199202477931976,-1.12642121315002,10.9968147277832
6.974156053,0.150149613618851,0.125024989247322,8.29771041870117
6.993713605,0.224327117204666,0.862014353275299,6.85483884811401
7.013272095,-0.0747757107019424,0.608375132083893,7.70429086685181
7.032829595,-0.292522579431534,-0.0664008259773254,9.44865798950195
7.052386418,-0.385842651128769,-0.571286380290985,9.82911682128906
7.071944022,-0.567697167396545,-0.681356251239777,9.30987453460693
7.091502459,-0.60598236322403,-0.437288343906403,9.14716243743897
7.111060011,-0.247058942914009,-0.308075904846191,9.01316452026367
7.130616782,0.542572557926178,-0.329611331224442,8.80020332336426
7.150174386,0.712462961673737,-0.506680190563202,8.60638523101807
7.169732824,0.30089744925499,-0.46839502453804,9.33858871459961
7.189290376,0.00179461692459881,-0.312861561775208,9.43430137634277
7.208847199,0.229112774133682,-0.126221388578415,8.88395214080811
7.228404803,0.343968242406845,0.101096756756306,8.36470985412598
7.247963241,0.131007045507431,0.416949331760407,8.20199775695801
7.267520741,0.0281156655400991,0.778265535831451,8.13978481292725
7.287077563,0.231505587697029,1.02233350276947,8.23071193695068
7.306635168,0.360718011856079,0.921834945678711,8.49152946472168
7.326193605,0.133399859070778,0.708873689174652,8.94855880737305
7.345751157,-0.0532403029501438,0.651445984840393,9.36012363433838
7.365307928,-0.065204419195652,0.4648058116436,9.72861862182617
7.384865532,-0.065204419195652,0.381056994199753,10.3268241882324
7.40442397,-0.0077766734175384,0.263808697462082,10.4919290542603
7.423981522,0.403788834810257,0.347557485103607,10.8843517303467
7.443538293,0.870389223098755,0.366700083017349,11.3509521484375
7.463095897,0.879960536956787,0.297308206558228,11.6309127807617
7.482654334,0.877567708492279,0.335593372583389,11.365309715271
7.502211834,0.0951147004961968,0.677767038345337,11.2719888687134
7.521768657,-0.775872766971588,0.940977513790131,11.3844518661499
7.541326209,-0.584446907043457,0.249451756477356,11.2576322555542
7.560884647,-0.125024989247322,-0.884746193885803,11.4682006835938
7.580442199,-0.768694281578064,-2.4783661365509,12.9828577041626
7.599999022,-0.955334424972534,-2.73200535774231,14.0620203018188
7.619556574,-0.694516777992249,-1.92562401294708,12.7172536849976
7.639115011,-0.534197628498077,-0.80817586183548,10.0229358673096
7.658672563,-0.594018220901489,-0.0759721174836159,8.02492904663086
7.678229334,-0.919442117214203,-0.0185443758964539,8.03210735321045
7.697786938,-1.00079810619354,-0.310468733310699,9.19501876831055
7.717345376,-1.05344021320343,-0.470787853002548,9.99182891845703
7.736902876,-0.943370342254639,-0.276969224214554,9.79561805725098
7.756459699,-0.663410067558289,-0.154935270547867,9.34098148345947
7.776017251,0.0281156655400991,-0.334396958351135,9.10409164428711
7.795575688,0.446859627962112,-0.580857694149017,8.91027355194092
7.815133241,-0.213559418916702,-0.781854808330536,9.2380895614624
7.834690011,-0.974476993083954,-0.748355269432068,10.1521482467651
7.854247563,-0.76151579618454,-0.461216568946838,9.69272613525391
7.873806001,-0.335593372583389,-0.0903290584683418,8.29053211212158
7.893363553,-0.28534409403801,0.249451756477356,7.58704233169556
7.912920324,-0.603589534759522,0.244666114449501,7.97707271575928
7.932477928,-1.06301140785217,0.105882398784161,8.86002445220947
7.952036313,-1.36450707912445,0.139381915330887,9.33141040802002
7.971593866,-1.34057891368866,0.21595224738121,9.26919651031494
7.991150636,-1.1132607460022,0.177667081356049,8.54177856445313
8.010708241,-0.964905738830566,0.369092881679535,8.22592639923096
8.030266626,-1.12522482872009,0.74237322807312,8.45802974700928
8.049824178,-1.02711915969849,1.27836549282074,8.58006381988525
8.069380949,-0.830907642841339,1.39800667762756,8.57288551330566
8.088938553,-0.950548768043518,1.35254299640656,9.17348384857178
8.108496938,-0.811765074729919,1.51046931743622,10.0636138916016
8.128054491,-0.51266223192215,1.80957210063934,10.5086784362793
8.147611261,-0.682552635669708,2.0656042098999,10.7479610443115
8.167168813,-1.16350996494293,1.51286208629608,11.7792673110962
8.186727251,-0.455234497785568,-0.0568295381963253,13.0450706481934
8.206284751,0.544965386390686,-1.32263267040253,14.1720905303955
8.225841574,0.511465847492218,-0.78903329372406,13.6648120880127
8.245399126,-0.682552635669708,0.651445984840393,11.9348011016846
8.264957563,-2.08713960647583,0.196809664368629,11.0973129272461
8.284515063,-1.70668077468872,-1.07856476306915,11.4801645278931
8.304071834,-0.412163704633713,-2.14815664291382,11.3724880218506
8.323629438,0.2410768866539,-1.60977149009705,10.5254287719727
8.343187824,-0.208773776888847,-0.59042900800705,9.40797996520996
8.362745376,-0.869192838668823,-0.0664008259773254,8.56809997558594
8.382302147,-0.732801914215088,-0.154935270547867,8.06321430206299
8.401859699,-0.0963111147284508,-0.820139944553375,8.1158561706543
8.421418136,0.327218502759933,-1.21734857559204,8.8648099899292
8.440975636,0.0927218794822693,-1.11206436157227,9.60179901123047
8.460532407,-0.51266223192215,-0.899103105068207,10.0612211227417
8.480089959,-0.661017239093781,-0.635892629623413,10.0540428161621
8.499648397,-0.302093863487244,-0.552143812179565,9.42233753204346
8.519205897,0.10229317098856,-0.25064817070961,8.62074184417725
8.538762668,0.116650104522705,0.21595224738121,7.94357299804688
8.558320272,-0.134596273303032,0.610767960548401,7.57268524169922
8.577878657,-0.31645080447197,0.651445984840393,7.58225679397583
8.597436157,-0.254237413406372,0.450448870658875,7.96750116348267
8.616992928,-0.062811590731144,0.335593372583389,8.43649482727051
8.636550532,-0.220737889409065,0.227916359901428,8.74277591705322
8.656108918,-0.498305320739746,0.148953214287758,9.00359344482422
8.675666418,-0.548554599285126,0.297308206558228,9.25005435943604
8.695223188,-0.328414916992188,0.701695263385773,9.18066215515137
8.714780793,-0.180059909820557,0.900299549102783,9.02991485595703
8.734339178,-0.139381915330887,0.933799028396606,9.06819915771484
8.753896678,-0.0963111147284508,1.02951192855835,9.31705284118652
8.773453449,-0.0269192550331354,1.10847508907318,9.46062278747559
8.793011001,-0.029312077909708,1.00558376312256,9.64247703552246
8.812569438,-0.393021106719971,1.00079810619354,10.0707921981812
8.832126938,-0.828514814376831,0.895513892173767,10.317253112793
8.851683709,-0.527019202709198,0.634696185588837,10.4919290542603
8.871241261,0.576072037220001,0.0412761904299259,10.6666049957275
8.890799647,0.286540508270264,-0.267397940158844,11.0327072143555
8.910357199,-0.945763170719147,-0.0185443758964539,11.6333055496216
8.92991397,-1.11804640293121,0.273379981517792,11.1260271072388
8.949471522,-0.0675972402095795,0.76151579618454,9.96072292327881
8.969029907,0.535394072532654,1.01994061470032,8.40538787841797
8.988587407,0.0783649384975433,0.689731121063232,7.981858253479
9.008144178,-1.46500563621521,-0.0329013131558895,9.99900722503662
9.02770173,-2.47716975212097,-1.11924278736115,12.4851503372192
9.047260116,-1.67796683311462,-1.64805662631989,12.6478624343872
9.066817616,-0.546161770820618,-1.21495568752289,11.2528467178345
9.086374386,-0.0508474819362164,-0.415752947330475,9.81476020812988
9.105931938,-0.0436690114438534,0.452841699123383,8.52502918243408
9.125490376,-0.340379029512405,0.921834945678711,7.44347286224365
9.145047876,-0.486341208219528,0.656231582164764,7.5439715385437
9.164604647,-0.239880472421646,-0.064008004963398,9.10648441314697
9.184162147,-0.196809664368629,-0.611964404582977,10.3914308547974
9.203720584,-0.919442117214203,-0.611964404582977,10.9513511657715
9.223278084,-1.70428788661957,-0.257826626300812,10.8723878860474
9.242834803,-1.54157602787018,0.0699900612235069,10.2023973464966
9.262392407,-0.993619620800018,0.220737889409065,9.60419178009033
9.281950793,-0.756730139255524,0.345164656639099,9.37448120117188
9.301508293,-0.82372921705246,0.421734988689423,9.46780109405518
9.321065011,-0.99122679233551,0.610767960548401,9.33141040802002
9.340622563,-1.23050904273987,0.96012008190155,9.07298564910889
9.360181001,-1.14676022529602,1.20897364616394,8.85763168334961
9.379738501,-1.02472627162933,1.22811627388,8.87438106536865
9.39929522,-1.02711915969849,1.15872430801392,9.35773086547852
9.418852772,-1.19461667537689,1.16590285301209,9.77886772155762
9.438411157,-1.43389892578125,1.26161575317383,10.0827560424805
9.457968657,-1.44107747077942,1.29032957553864,10.0707921981812
9.477525428,-1.11565351486206,1.12283205986023,10.3124675750732
9.49708298,-0.749551713466644,0.919442117214203,10.6905336380005
9.516641366,-0.467198610305786,0.795015335083008,10.9322080612183
9.536198866,-0.55573308467865,0.687338292598724,11.121241569519
9.555755636,-0.818943560123444,0.560518682003021,11.3318099975586
9.575313136,-1.01994061470032,0.326022088527679,11.666805267334
9.594871574,-0.677767038345337,0.534197628498077,12.1118698120117
9.614429022,-0.373878538608551,0.955334424972534,11.626127243042
9.633985793,-0.244666114449501,0.6801598072052,10.9561367034912
9.653543345,-0.486341208219528,-0.198006078600883,11.0207424163818
9.67310173,-0.924227774143219,-1.19820594787598,11.9013013839722
9.69265923,-0.804586589336395,-1.53320109844208,12.3344020843506
9.712215949,-0.409770876169205,-1.46620202064514,11.1978120803833
9.731773501,-0.132203444838524,-0.879960536956787,9.46062278747559
9.751331886,-0.108275227248669,-0.178863495588303,7.77846813201904
9.770889386,-0.0819541737437248,0.50548380613327,7.02233648300171
9.790446157,0.008973085321486,1.00797653198242,7.1060848236084
9.810003657,-0.0484546571969986,1.18983101844788,7.21854782104492
9.829562043,-0.428913444280624,0.795015335083008,7.1228346824646
9.849119543,-1.1012966632843,-0.178863495588303,7.7114691734314
9.868676313,-1.3668999671936,-1.14077818393707,9.72622585296631
9.888233866,-0.677767038345337,-1.53798675537109,11.6955184936523
9.907792251,0.142971158027649,-0.851246654987335,11.6548404693604
9.927349699,0.123828575015068,0.352343142032623,10.0468645095825
9.94690647,0.0568295381963253,1.26640141010284,8.78106117248535
9.96646397,0.26979073882103,1.49132668972015,8.14696311950684
9.986022407,0.487537622451782,1.25683009624481,8.48195838928223
10.005579855,0.542572557926178,1.06061863899231,9.32183837890625
10.025136626,0.399003177881241,0.962512910366058,9.84347438812256
10.044694126,0.224327117204666,0.940977513790131,10.3005037307739
10.064252511,0.317647218704224,0.873978495597839,9.97747230529785
10.083810011,0.513858675956726,0.893121063709259,9.27637481689453
10.10336673,0.635892629623413,0.919442117214203,9.01077175140381
10.122924282,0.77706915140152,0.687338292598724,9.3792667388916
10.142482668,0.894317448139191,0.632303357124329,10.0612211227417
10.162040168,0.707677304744721,0.795015335083008,10.3124675750732
10.181596886,0.195613250136375,0.909870803356171,10.1090774536133
10.201154438,0.142971158027649,0.73040908575058,9.97747230529785
10.220712824,0.511465847492218,0.168095797300339,10.3818588256836
10.240270272,0.635892629623413,-0.245862528681755,11.0327072143555
10.259827043,0.157328084111214,-0.00418743956834078,11.4155588150024
10.279384543,-0.0532403029501438,0.644267499446869,11.3677024841309
10.298942928,0.0161515530198813,1.01036942005157,11.0111713409424
10.318500428,0.150149613618851,1.02711915969849,10.7479610443115
10.338057147,0.233898416161537,0.452841699123383,10.3196458816528
10.357614699,-0.180059909820557,-0.434895515441895,10.594820022583
10.377173084,-0.818943560123444,-1.04506528377533,11.9395866394043
10.396730532,-1.00558376312256,-1.05463659763336,12.3487596511841
10.416287303,-1.18504536151886,-0.834496915340424,11.724232673645
10.435844803,-1.18025982379913,-0.29132616519928,10.8317098617554
10.455403188,-1.00319087505341,0.120239339768887,9.53719329833984
10.474960688,-0.957727253437042,0.476769924163818,8.35992431640625
10.494517407,-0.931406199932098,0.672981381416321,7.75693273544312
10.514074959,-0.993619620800018,0.687338292598724,7.73300457000732
10.533633345,-1.25922286510468,0.629910588264465,8.24746131896973
10.553190793,-1.36929273605347,0.641874670982361,8.70688343048096
10.572747511,-1.05104732513428,0.598803877830505,9.00837898254395
10.592305063,-0.768694281578064,0.613160789012909,9.23091125488281
10.611863449,-0.661017239093781,0.646660327911377,9.5659065246582
10.631420897,-0.917049288749695,0.73040908575058,9.46780109405518
10.650977616,-1.16590285301209,0.955334424972534,9.29551792144775
10.670535168,-1.02472627162933,1.12522482872009,9.29073238372803
10.690093553,-0.696909606456757,1.16829562187195,9.31466007232666
10.709651001,-0.617946445941925,1.21375930309296,9.31944561004639
10.729207772,-0.783051192760468,1.09651100635529,9.49890804290772
10.748765272,-0.854835867881775,0.943370342254639,9.73101139068604
10.768323657,-0.924227774143219,1.01754784584045,10.0013999938965
10.787881105,-0.988833963871002,1.48654103279114,10.0301141738892
10.807437824,-1.22093772888184,1.89810657501221,9.87218761444092
10.826995376,-1.1132607460022,2.0608184337616,9.71904754638672
10.846553761,-0.857228696346283,1.82871472835541,9.60897731781006
10.866111209,-0.735194742679596,1.74018025398254,9.65444087982178
10.885667928,-0.49351966381073,1.69471669197083,9.45583724975586
10.90522548,-0.254237413406372,1.56071853637695,9.63529872894287
10.924783813,-0.213559418916702,1.40518510341644,10.2023973464966
10.944341313,-0.151346027851105,1.18983101844788,10.716854095459
10.963898032,0.219541475176811,0.917049288749695,11.2049903869629
10.983455532,0.0687936544418335,0.6801598072052,12.0161571502686
11.003013918,-0.747158885002136,0.737587571144104,12.107084274292
11.022571366,-1.87896394729614,0.620339274406433,11.6739835739136
11.042128136,-1.90528500080109,-0.104685992002487,12.1573333740234
11.061685636,-0.835693299770355,-1.22213411331177,12.8177528381348
11.081244022,-0.500698149204254,-1.62173557281494,12.3248310089111
11.10080147,-0.809372246265411,-1.31306147575378,11.1595268249512
11.120358188,-0.565304338932037,-0.681356251239777,9.86261653900147
11.139915688,-0.194416835904121,-0.432502686977387,8.65424156188965
11.159474074,0.123828575015068,-0.600000262260437,8.11346340179443
11.179031522,0.365503668785095,-1.11685001850128,8.39820957183838
11.198588293,0.30089744925499,-1.26281213760376,9.30987453460693
11.218145793,0.157328084111214,-0.824925601482391,9.58504962921143
11.237704178,-0.108275227248669,-0.243469700217247,8.78823947906494
11.257261626,-0.132203444838524,0.321236431598663,8.1158561706543
11.276818345,0.157328084111214,0.672981381416321,8.16371250152588
11.296375845,0.597607433795929,0.967298567295075,8.70449066162109
11.31593423,0.664606511592865,1.0845468044281,9.19262599945068
11.335491678,0.224327117204666,1.30229377746582,9.37448120117188
11.355048397,-0.0364905446767807,1.35972142219543,9.50847911834717
11.374605897,0.482751965522766,1.16111719608307,9.92961597442627
11.394164282,1.61455702781677,0.909870803356171,9.48933601379395
11.41372173,2.16251349449158,0.718445003032684,8.19003391265869
11.433278449,0.652642369270325,1.0845468044281,7.85025310516357
11.452836001,-0.349950313568115,1.3788640499115,9.75015449523926
11.472394334,0.781854808330536,0.639481842517853,10.8006029129028
11.491951782,1.86580348014832,0.407378047704697,9.40797996520996
11.511508501,1.66959202289581,1.24247312545776,7.94357299804688
11.531066053,0.96370929479599,2.22113752365112,8.27856826782227
11.550624386,0.384646236896515,2.50109791755676,9.59701347351074
11.570181834,0.470787853002548,1.91724920272827,11.0016002655029
11.589738553,0.856032311916351,1.06540429592133,11.5639133453369
11.609296105,0.879960536956787,0.189631193876266,11.7840528488159
11.628854438,0.7579265832901,-0.226719945669174,12.0640134811401
11.648411886,0.564107954502106,-0.288933336734772,12.2721891403198
11.667968605,0.664606511592865,0.0340977236628532,12.2315111160278
11.687526105,0.451645284891129,0.354735970497131,11.8414812088013
11.707084491,0.107078813016415,0.110668048262596,11.2169542312622
11.726641938,-0.196809664368629,-0.714855790138245,11.0398855209351
11.746198657,-0.302093863487244,-1.34416806697845,11.9060869216919
11.765756157,-0.907477974891663,-1.20059871673584,12.1908330917358
11.785314491,-1.39082813262939,-0.635892629623413,10.8412809371948
11.804871991,-1.21854496002197,-0.243469700217247,9.1782693862915
11.824428657,-0.854835867881775,0.2757728099823,8.26181793212891
11.843986209,-0.969691395759583,0.481555551290512,8.10389232635498
11.863544543,-1.7138592004776,0.395413935184479,8.95095157623291
11.883101991,-2.08713960647583,0.132203444838524,9.87697410583496
11.902658709,-1.48414826393127,0.117846518754959,10.1641120910645
11.922216209,-0.436091929674149,0.208773776888847,9.5132646560669
11.941774543,0.0687936544418335,0.287736922502518,8.70449066162109
11.961331991,0.150149613618851,0.244666114449501,8.36231708526611
11.980888709,0.209970191121101,0.158524498343468,8.45563697814941
12.000446209,0.178863495588303,0.0604187734425068,8.91505908966065
12.020004595,0.17168502509594,-0.0281156655400991,9.21176910400391
12.039562043,-0.0843469947576523,-0.0376869551837444,9.45823001861572
12.059118761,-0.467198610305786,0.239880472421646,9.47737216949463
12.078676261,-0.567697167396545,0.751944541931152,9.32423210144043
12.098234595,-0.397806763648987,0.97926265001297,9.19501876831055
12.117792043,-0.29491537809372,1.14436745643616,9.36012363433838
12.137348761,-0.407378047704697,1.35015022754669,9.5324068069458
12.156906261,-0.572482824325562,1.63489603996277,9.58744239807129
12.176464595,-0.668195724487305,1.91485631465912,9.53719329833984
12.196022043,-0.522233545780182,1.99860513210297,9.5802640914917
12.215578761,-0.177667081356049,1.82871472835541,9.673583984375
12.235136261,0.221934303641319,1.35972142219543,9.94636535644531
12.254694595,0.116650104522705,1.15633153915405,10.4632148742676
12.274252043,-0.378664195537567,1.46500563621521,11.0805635452271
12.293808761,-0.732801914215088,1.9794625043869,11.4442720413208
12.313366261,-0.361914426088333,1.91964197158813,11.2528467178345
12.332924595,0.0687936544418335,1.25922286510468,11.9084796905518
12.352482043,0.0520438924431801,0.74237322807312,12.9397869110107
12.372038761,-0.60598236322403,0.615553617477417,13.6576337814331
12.391596261,-1.07736837863922,0.661017239093781,13.7365970611572
12.411154595,-1.26400852203369,1.07976126670837,12.812967300415
12.430712043,-1.01276218891144,1.28554391860962,11.4370937347412
12.450268761,-0.0340977236628532,1.06779706478119,10.4823579788208
12.469826261,0.640678286552429,0.448056042194366,10.2813606262207
12.489384595,0.69571316242218,-0.0448654256761074,10.7001047134399
12.508942043,0.114257283508778,-0.123828575015068,11.063814163208
12.528498709,-0.51266223192215,-0.205184549093246,11.1164560317993
12.548056209,-0.897906720638275,-0.463609397411346,10.9944219589233
12.567614543,-0.558125853538513,-0.786640465259552,10.8556385040283
12.587171991,0.178863495588303,-0.968494951725006,10.4345016479492
12.606728709,0.621535658836365,-0.858425140380859,9.80997467041016
12.626286209,0.655035197734833,-0.52821558713913,9.37208843231201
12.645844543,0.473180681467056,-0.408574461936951,9.20219802856445
12.665401991,0.717248558998108,-0.77706915140152,9.05623531341553
12.684958657,0.987637519836426,-1.10727870464325,9.26201820373535
12.704516157,0.949352383613586,-0.956530869007111,9.62812042236328
12.724074491,0.46839502453804,-0.511465847492218,9.46301555633545
12.743631938,0.207577362656593,0.0197407864034176,9.24287605285645
12.763188657,0.0376869551837444,0.352343142032623,9.69272613525391
12.782746157,-0.00538385100662708,0.558125853538513,10.0109720230103
12.802304491,0.188434779644012,0.675374209880829,9.41755199432373
12.821861938,0.482751965522766,0.620339274406433,8.67816925048828
12.841418605,0.767497837543488,0.507876634597778,8.29771041870117
12.860976105,0.949352383613586,0.311665147542954,8.46760082244873
12.880534438,0.997208833694458,0.220737889409065,9.02752208709717
12.900091886,0.729212701320648,0.206380948424339,9.32662487030029
12.919648553,0.501894533634186,0.388235479593277,9.48933601379395
12.939206053,0.473180681467056,0.735194742679596,9.27398204803467
12.958764386,0.422931402921677,1.07497560977936,8.71645450592041
12.978321834,0.46839502453804,1.07258272171021,8.56092166900635
12.997878553,0.387039065361023,0.842871785163879,9.16630554199219
13.017436053,0.408574461936951,0.797408163547516,9.77168941497803
13.036994386,0.425324231386185,0.897906720638275,10.0109720230103
13.056551834,0.190827608108521,0.998405277729034,10.4656076431274
13.076108501,0.233898416161537,1.11804640293121,10.9226369857788
13.095666001,0.583250522613525,1.27597272396088,11.4610223770142
13.115224334,0.836889743804932,1.182652592659,11.9419794082642
13.134781782,0.760319411754608,0.897906720638275,12.0975131988525
13.154338449,0.523429930210114,0.646660327911377,11.822338104248
13.173895949,-0.0125623187050223,0.31645080447197,12.1549406051636
13.193454282,-1.07018995285034,-0.858425140380859,13.2556390762329
13.21301173,-1.46021997928619,-2.3515465259552,14.3371953964233
13.232568449,-0.656231582164764,-2.53579378128052,13.6791687011719
13.252125897,-0.0819541737437248,-1.27238345146179,10.8006029129028
13.27168423,-0.440877586603165,-0.190827608108521,8.05364322662354
13.291241678,-0.897906720638275,0.414556533098221,7.28315401077271
13.310798397,-0.914656460285187,0.110668048262596,7.77368259429932
13.330355897,-0.52462637424469,-0.561715126037598,8.15653419494629
13.34991423,-0.51266223192215,-0.992423176765442,8.97009372711182
13.369471626,-0.622732102870941,-0.841675341129303,9.85304546356201
13.389028345,-0.577268481254578,-0.339182615280151,9.453444480896
13.408585845,-0.2757728099823,0.457627326250076,8.3694953918457
13.428144178,-0.0795613527297974,0.790229678153992,7.96989393234253
13.447701626,0.0448654256761074,0.783051192760468,8.49631500244141
13.467258293,0.178863495588303,0.168095797300339,8.94616603851318
13.486815793,0.2410768866539,-0.377467781305313,8.7236328125
13.506374126,0.0544367134571075,-0.355932354927063,8.23549747467041
13.525931574,-0.359521597623825,-0.183649137616158,7.83111047744751
13.545488241,-0.608375132083893,-0.329611331224442,8.25224685668945
13.565045741,-0.407378047704697,-0.279362052679062,8.94377326965332
13.584604074,-0.196809664368629,-0.353539556264877,8.70688343048096
13.604161522,-0.976869821548462,-0.288933336734772,9.30269622802734
13.623718241,-1.38843536376953,0.115453690290451,10.7048902511597
13.643275688,-0.562911510467529,0.227916359901428,10.5708923339844
13.662834022,-0.017347963526845,0.115453690290451,9.79801082611084
13.68239147,-0.677767038345337,0.211166605353355,10.9202442169189
13.701948188,-0.744766056537628,0.366700083017349,12.2817602157593
13.721505688,0.896710276603699,0.0747757107019424,11.7146615982056
13.741064022,3.00957274436951,-0.212363004684448,10.9130659103394
13.760621418,3.94516634941101,0.172881439328194,10.456036567688
13.780178136,3.22253394126892,-0.008973085321486,9.60419178009033
13.799735636,1.17667055130005,-0.547358155250549,10.6785688400269
13.81929397,0.0161515530198813,-1.01874423027039,12.7794675827026
13.838851418,0.456430912017822,-1.81555414199829,12.571291923523
13.858408084,0.980459094047546,-2.18404889106751,11.1451692581177
13.877965584,0.633499801158905,-1.81316137313843,9.95832920074463
13.897523918,-0.129810631275177,-0.865603566169739,9.83150959014893
13.917081366,-0.306879490613937,-0.0424726009368897,9.74536800384522
13.936638084,0.358325183391571,-0.296111792325974,9.46062278747559
13.956195532,0.91346001625061,-0.487537622451782,9.50847911834717
13.975753918,0.494716078042984,-0.286540508270264,9.47976493835449
13.995311313,-0.548554599285126,-0.0400797799229622,9.50369358062744
14.014868032,-0.948155999183655,-0.20039889216423,9.57308483123779
14.034425532,0.157328084111214,-0.848853826522827,9.03470039367676
14.053983866,1.38963174819946,-1.46859490871429,8.59920597076416
14.073541313,1.53080832958221,-1.33220398426056,8.68534755706787
14.093098032,0.812961518764496,-0.832104086875916,8.9246301651001
14.112655532,0.336789786815643,-0.375074952840805,8.80738162994385
14.132213866,0.556929469108582,-0.11186445504427,8.4771728515625
14.151771313,1.02113711833954,-0.0448654256761074,8.47238636016846
14.171328032,1.0929217338562,0.0101694958284497,8.73081207275391
14.190885532,0.729212701320648,0.194416835904121,9.01316452026367
14.210443866,0.463609397411346,0.199202477931976,9.1782693862915
14.230001313,0.580857694149017,0.261415868997574,9.31466007232666
14.249558032,1.07617199420929,0.47437709569931,9.13280582427979
14.269115532,0.841675341129303,0.617946445941925,8.69252681732178
14.288673866,0.248255342245102,0.689731121063232,9.19980525970459
14.308231313,0.686141908168793,0.419342160224915,9.86740207672119
14.327788032,1.38963174819946,0.168095797300339,10.252646446228
14.347345532,1.12402844429016,0.287736922502518,10.1330060958862
14.366903866,0.7579265832901,0.436091929674149,10.1234340667725
14.386461313,0.805783033370972,0.314057976007462,10.6857481002808
14.406018032,1.00678014755249,0.290129750967026,11.5495567321777
14.425575532,0.542572557926178,0.273379981517792,12.3655090332031
14.445133918,0.0759721174836159,0.424127817153931,12.6215410232544
14.464691366,0.549750983715057,0.876371264457703,10.6929264068604
14.484248084,0.844068169593811,0.737587571144104,8.36710262298584
14.503805584,1.59302163124084,-0.427717059850693,8.83609580993652
14.523363918,1.46141648292542,-2.06440782546997,12.5760774612427
14.542921366,1.08335041999817,-2.80618286132813,15.6460695266724
14.562478084,0.74596244096756,-2.84207510948181,15.9667072296143
14.582035636,0.48993045091629,-2.09312152862549,14.2199468612671
14.60159397,0.154935270547867,-1.29631161689758,11.8343029022217
14.621151418,-0.235094830393791,-0.633499801158905,9.65204811096191
14.640708136,-0.416949331760407,-0.17168502509594,8.57288551330566
14.660265688,-0.127417802810669,-0.233898416161537,8.30728244781494
14.679824022,0.10229317098856,-0.544965386390686,8.21635437011719
14.69938147,-0.153738856315613,-0.671784937381744,8.19481945037842
14.718938188,-0.165702968835831,-0.501894533634186,7.91007328033447
14.738495741,0.248255342245102,-0.159720912575722,7.51765060424805
14.758054074,0.619142830371857,0.158524498343468,7.17069149017334
14.777611574,0.798604547977448,0.366700083017349,6.9194450378418
14.797168293,0.762712240219116,0.460020154714584,7.02472925186157
14.816725793,0.700498819351196,0.333200544118881,7.43629455566406
14.836284178,0.413360118865967,0.13698910176754,7.99860811233521
14.855841626,0.126221388578415,-0.0903290584683418,8.70209789276123
14.875398345,0.104685992002487,-0.0568295381963253,8.88155937194824
14.894955897,-0.110668048262596,0.359521597623825,8.60638523101807
14.91451423,-0.371485710144043,0.7232306599617,8.49152946472168
14.93407173,-0.550947427749634,0.864407181739807,8.93420124053955
14.953628449,-0.419342160224915,0.862014353275299,9.39840888977051
14.973185949,-0.306879490613937,0.914656460285187,9.49651527404785
14.992744334,-0.345164656639099,1.10368943214417,9.79083251953125
15.012301782,-0.749551713466644,1.1012966632843,10.3698949813843
15.031858553,-0.890728235244751,0.809372246265411,10.9537439346313
15.051416053,-0.440877586603165,0.531804859638214,11.4753789901733
15.070974438,0.0687936544418335,0.337986201047897,11.8821592330933
15.090531886,0.159720912575722,0.349950313568115,12.2961177825928
15.110088657,-0.0532403029501438,0.603589534759522,12.5138645172119
15.129646157,-0.192024022340775,1.07018995285034,12.2315111160278
15.149204543,0.217148661613464,0.500698149204254,11.6165561676025
15.168761991,0.525822758674622,0.0604187734425068,12.0305137634277
15.188318761,0.348753899335861,-0.0759721174836159,12.4253301620483
15.207876261,-0.203988134860992,-0.150149613618851,12.489935874939
15.227434647,-0.589232563972473,-0.592821836471558,12.7005043029785
15.246992095,-0.345164656639099,-1.5834504365921,12.5904340744019
15.266548866,0.631106972694397,-1.92323124408722,11.5304145812988
15.286106366,0.875174880027771,-1.22452700138092,10.137791633606
15.305664751,0.521037101745606,-0.176470667123795,8.82413196563721
15.325222251,0.336789786815643,0.510269403457642,7.75932550430298
15.34477897,0.846460998058319,0.816550731658936,7.51765060424805
15.36433647,1.17667055130005,0.0891326442360878,7.9483585357666
15.383894855,0.96370929479599,-0.588036179542542,9.01077175140381
15.403452355,0.645463883876801,-0.678963422775269,9.89133071899414
15.423009074,0.391824722290039,-0.621535658836365,10.3938236236572
15.442566626,0.681356251239777,-0.693320333957672,10.0827560424805
15.462125011,0.903888761997223,-0.714855790138245,9.43669414520264
15.481682459,0.865603566169739,-0.418145745992661,8.81934642791748
15.50123923,0.781854808330536,0.0388833694159985,8.00339317321777
15.52079673,0.645463883876801,0.371485710144043,7.15872716903687
15.540355116,0.403788834810257,0.601196706295013,6.89790964126587
15.559912616,0.413360118865967,0.845264613628388,7.14915561676025
15.579469334,0.722034215927124,1.13958179950714,7.29511785507202
15.599026886,0.980459094047546,1.35732865333557,7.1395845413208
15.618585272,0.877567708492279,1.34297168254852,7.21854782104492
15.63814272,0.633499801158905,1.26161575317383,8.02732181549072
15.657699491,0.494716078042984,1.03429758548737,9.19741249084473
15.677256991,0.576072037220001,0.431306272745132,10.3531455993652
15.696815376,0.647856712341309,-0.28175488114357,11.6500549316406
15.716372876,0.748355269432068,-0.576072037220001,12.7698965072632
15.735929595,0.741176843643189,-0.418145745992661,12.6239337921143
15.755487147,0.863210797309876,-0.0520438924431801,11.6500549316406
15.775045532,1.29391884803772,0.728016316890717,11.6045913696289
15.79460298,1.82033979892731,1.2807582616806,11.78883934021
15.814159751,2.01176571846008,1.41954207420349,11.3318099975586
15.833717251,1.57627189159393,1.57746827602386,10.9728860855103
15.853275636,1.11685001850128,1.56789708137512,10.9274225234985
15.872833136,0.492323249578476,1.26161575317383,10.6378908157349
15.892389855,-0.452841699123383,0.273379981517792,11.8534450531006
15.911947407,-0.601196706295013,-1.49013030529022,14.1242341995239
15.931505793,-0.00299102836288512,-3.25364065170288,14.5310134887695
15.951063293,0.360718011856079,-3.62213516235352,13.0067853927612
15.970620011,-0.0675972402095795,-2.14337086677551,11.2073831558228
15.990177563,-0.471984267234802,-0.466002196073532,9.08255672454834
16.009735949,-0.328414916992188,0.689731121063232,7.25443983078003
16.029293397,-0.101096756756306,0.905085146427155,6.67059135437012
16.048850168,-0.180059909820557,0.0723828822374344,7.5272216796875
16.06840772,-0.160917326807976,-0.858425140380859,9.04666423797607
16.087966105,0.008973085321486,-1.08574330806732,10.415358543396
16.107523553,0.202791720628738,-0.523429930210114,10.6378908157349
16.127080324,0.135792687535286,0.122632160782814,9.15673446655273
16.146637824,-0.101096756756306,0.534197628498077,7.96989393234253
16.166196209,-0.115453690290451,0.601196706295013,7.68754100799561
16.185753709,-0.0245264321565628,0.622732102870941,7.75214719772339
16.20531048,-0.168095797300339,0.687338292598724,7.57268524169922
16.22486798,-0.414556533098221,0.802193820476532,7.22811889648438
16.244426366,-0.414556533098221,0.809372246265411,7.00797939300537
16.263983866,-0.29491537809372,1.18025982379913,7.01994323730469
16.283540584,-0.26620152592659,1.55114722251892,6.90748071670532
16.303098136,-0.424127817153931,1.4482558965683,7.73539733886719
16.322656522,-0.321236431598663,1.00079810619354,9.52522850036621
16.342214022,-0.0843469947576523,0.900299549102783,10.7431755065918
16.361770741,0.0544367134571075,1.31425786018372,10.9896364212036
16.381328293,0.0951147004961968,1.575075507164,11.2049903869629
16.400886678,0.0807577669620514,1.02233350276947,11.9348011016846
16.420444178,0.0185443758964539,0.062811590731144,12.4684009552002
16.440000897,0.793818891048431,-0.78903329372406,12.6191482543945
16.459558449,1.94715940952301,-1.15034949779511,12.7627182006836
16.479116834,2.36829614639282,-0.784247636795044,12.7387895584106
16.498674334,2.07637190818787,-0.181256309151649,12.164511680603
16.518231053,1.49970161914825,0.416949331760407,11.4251298904419
16.537788605,0.841675341129303,0.835693299770355,11.3844518661499
16.557346991,-0.400199592113495,0.972084224224091,11.944372177124
16.576904491,-1.76650130748749,0.548554599285126,12.6717901229858
16.596461209,-1.23529469966888,-0.611964404582977,12.7411823272705
16.616018761,0.391824722290039,-1.32502555847168,11.3868446350098
16.635577147,1.33938252925873,-0.961316525936127,9.71665477752686
16.655134647,0.827318429946899,0.120239339768887,8.71166896820068
16.674691366,0.310468733310699,1.02472627162933,8.38385200500488
16.694248918,1.17906332015991,1.20179522037506,7.5607213973999
16.713807303,2.15054941177368,-0.0831505879759789,6.62034225463867
16.733364803,1.11924278736115,-0.911067247390747,8.64706325531006
16.752921522,0.473180681467056,-0.372682124376297,11.3054885864258
16.772479074,0.700498819351196,-0.267397940158844,11.7194471359253
16.792037459,1.08095765113831,-0.150149613618851,10.0779705047607
16.811594959,1.22213411331177,-0.0137587301433086,8.53460025787354
16.83115173,0.899103105068207,0.235094830393791,7.97707271575928
16.85070923,-0.0269192550331354,0.663410067558289,8.21635437011719
16.870267616,-0.586839735507965,0.869192838668823,8.34078121185303
16.889825116,-0.220737889409065,0.601196706295013,8.01057243347168
16.909381886,-0.0149551415815949,0.481555551290512,7.53200769424439
16.928939386,-0.249451756477356,0.510269403457642,7.36690282821655
16.948497772,-0.0987039357423782,0.620339274406433,7.46022272109985
16.968055272,0.430109858512878,0.634696185588837,7.27118968963623
16.987612043,0.643071115016937,0.665802896022797,7.50568628311157
17.007169543,0.26021945476532,0.596411049365997,8.29531764984131
17.026727928,-0.125024989247322,0.414556533098221,9.35294532775879
17.046285428,0.17168502509594,0.503090977668762,9.8267240524292
17.065842199,1.04506528377533,0.634696185588837,9.56112098693848
17.085399751,1.72462689876556,0.625124931335449,9.49651527404785
17.104958136,1.48534464836121,0.503090977668762,9.86740207672119
17.124515584,0.887139022350311,0.634696185588837,10.5637140274048
17.144072355,0.774676322937012,0.50548380613327,11.1595268249512
17.163629907,0.822532773017883,-0.169292196631432,11.9587297439575
17.183188293,0.547358155250549,-0.688534736633301,13.3393878936768
17.202745793,0.126221388578415,-0.341575443744659,13.676775932312
17.222302511,0.071186475455761,0.273379981517792,12.3750801086426
17.241860063,-0.113060869276524,0.462412983179092,11.5782709121704
17.261418449,-0.460020154714584,-0.0616151839494705,11.724232673645
17.280975949,-0.881156921386719,-1.73659098148346,12.2913312911987
17.300532668,-1.02711915969849,-3.1555347442627,13.7461681365967
17.32009022,-0.629910588264465,-3.41156697273254,14.0763778686523
17.339648605,-0.488734036684036,-2.32043981552124,12.5186500549316
17.359206105,-0.646660327911377,-1.21256291866303,10.2000045776367
17.378762876,-0.60598236322403,-0.669392108917236,8.70688343048096
17.398320376,-0.536590456962585,-1.13120687007904,8.67577648162842
17.417878761,-0.309272319078445,-1.96151638031006,9.44865798950195
17.437436261,-0.242273285984993,-2.28933310508728,10.1521482467651
17.456993032,-0.546161770820618,-1.62652122974396,10.1210412979126
17.476550532,-0.833300471305847,-0.951745212078095,9.32662487030029
17.49610897,-0.804586589336395,-0.480359137058258,8.49392223358154
17.515666418,-0.646660327911377,-0.322432845830917,7.75453996658325
17.535223188,-0.385842651128769,-0.312861561775208,7.31904649734497
17.554780741,-0.263808697462082,-0.145363971590996,7.2329044342041
17.574339126,-0.440877586603165,0.0532403029501438,7.23051166534424
17.593896626,-0.644267499446869,0.278165638446808,7.25922584533691
17.613453345,-0.55573308467865,0.402592420578003,7.33101034164429
17.633010897,-0.309272319078445,0.795015335083008,7.5439715385437
17.652569282,-0.254237413406372,1.09651100635529,7.87657403945923
17.672126782,-0.658624410629273,1.1012966632843,8.41735172271729
17.691683501,-0.756730139255524,0.905085146427155,9.20459079742432
17.711241053,-0.333200544118881,0.400199592113495,10.032506942749
17.730799438,0.0257228426635265,-0.0137587301433086,10.9226369857788
17.750356938,-0.062811590731144,-0.0400797799229622,11.7744817733765
17.769913709,-0.639481842517853,0.0317048989236355,11.985050201416
17.789471261,-1.36450707912445,-0.152542442083359,11.0685997009277
17.809029647,-0.531804859638214,-0.973280608654022,11.1858472824097
17.828587147,0.494716078042984,-1.40159583091736,12.4923286437988
17.848143866,-0.433699101209641,-0.786640465259552,13.2173538208008
17.867701418,-0.644267499446869,-0.0496510714292526,12.2171545028687
17.887259803,0.762712240219116,0.213559418916702,10.9106731414795
17.906817303,1.74616229534149,-0.008973085321486,10.2717895507813
17.926374022,0.978066265583038,0.0795613527297974,10.4416799545288
17.945931574,-0.689731121063232,-0.547358155250549,11.3294172286987
17.965489959,-1.05822587013245,-0.973280608654022,12.592827796936
17.985047459,-0.180059909820557,-0.966102123260498,11.4705934524536
18.00460423,0.375074952840805,-0.463609397411346,8.98445129394531
18.024161782,0.346361070871353,-0.0831505879759789,7.76650428771973
18.043720168,0.116650104522705,0.101096756756306,7.88614511489868
18.063277668,0.0161515530198813,-0.169292196631432,8.36470985412598
18.082834386,-0.299701035022736,-0.48993045091629,8.86241722106934
18.102391938,-0.615553617477417,-0.485144793987274,9.20219802856445
18.121950324,-0.986441135406494,-0.133399859070778,9.64486980438232
18.141507824,-1.13479614257813,0.117846518754959,9.673583984375
18.161064595,-1.02711915969849,0.29491537809372,9.1591272354126
18.180622095,-0.821336388587952,0.469591438770294,8.72124004364014
18.200180532,-0.598803877830505,0.653838813304901,8.67338371276856
18.21973798,-0.534197628498077,0.694516777992249,8.78106117248535
18.239294751,-0.416949331760407,0.562911510467529,8.91266632080078
18.258852303,-0.180059909820557,0.340379029512405,9.04427146911621
18.278410688,0.0281156655400991,0.428913444280624,9.12802028656006
18.297968188,0.140578329563141,0.570089995861054,9.09930610656738
18.317524907,0.26021945476532,0.653838813304901,9.02512836456299
18.337082459,0.169292196631432,0.634696185588837,8.61356353759766
18.356640845,0.145363971590996,0.407378047704697,8.4771728515625
18.376198345,0.217148661613464,0.400199592113495,8.58006381988525
18.395755116,0.343968242406845,0.689731121063232,8.33838844299316
18.415312668,0.475573509931564,0.924227774143219,8.14696311950684
18.434871053,0.504287362098694,0.728016316890717,8.45802974700928
18.454428501,0.693320333957672,0.407378047704697,9.53001403808594
18.473985272,0.851246654987335,0.290129750967026,10.3483600616455
18.493542824,0.997208833694458,0.431306272745132,10.1425771713257
18.513101209,1.3585250377655,0.462412983179092,9.97268676757813
18.532658709,1.82751834392548,0.211166605353355,10.8460664749146
18.552215428,1.33220398426056,-0.035294134169817,12.3822593688965
18.57177298,1.12163555622101,0.249451756477356,13.2341041564941
18.591331366,1.34895372390747,0.424127817153931,12.7483606338501
18.610888866,1.38963174819946,0.431306272745132,12.0137643814087
18.630445636,0.879960536956787,0.180059909820557,11.9108724594116
18.650003136,0.107078813016415,0.26620152592659,11.6069841384888
18.669561522,0.0927218794822693,0.577268481254578,10.3220386505127
18.689119022,-0.0436690114438534,0.527019202709198,9.59940624237061
18.708675793,-0.682552635669708,-0.564107954502106,11.023136138916
18.728233345,-1.56311142444611,-1.84426808357239,13.7892389297485
18.74779173,-1.12283205986023,-2.34436798095703,14.1529474258423
18.767349178,-0.60598236322403,-1.88973164558411,12.0161571502686
18.786905949,-0.668195724487305,-0.805783033370972,10.1353988647461
18.806463501,-0.632303357124329,-0.174077853560448,9.22134017944336
18.826021886,-0.419342160224915,0.0556331276893616,8.4293155670166
18.845579386,-0.426520645618439,0.187238365411758,8.20199775695801
18.865136105,-0.900299549102783,0.189631193876266,8.93898677825928
18.884693657,-1.02711915969849,-0.219541475176811,9.7334041595459
18.904252043,-1.25443732738495,-0.719641387462616,10.618748664856
18.923809543,-1.21375930309296,-0.748355269432068,10.9178514480591
18.943366261,-1.07018995285034,-0.499501734972,10.2478609085083
18.962923813,-1.05104732513428,-0.107078813016415,9.68315505981445
18.982482199,-0.964905738830566,-0.0759721174836159,9.66879844665527
19.002039699,-0.962512910366058,0.0388833694159985,9.71426200866699
19.021596418,-1.01276218891144,0.412163704633713,9.1112699508667
19.04115397,-1.05344021320343,0.7232306599617,8.45324420928955
19.060712355,-0.938584685325623,0.639481842517853,8.21635437011719
19.080269855,-0.527019202709198,0.421734988689423,8.17089080810547
19.099826574,-0.14656038582325,0.407378047704697,7.96989393234253
19.119384126,0.00179461692459881,0.598803877830505,7.86700248718262
19.138942511,0.221934303641319,0.507876634597778,7.74257564544678
19.158499959,0.181256309151649,0.404985219240189,7.81196784973145
19.17805673,-0.273379981517792,0.687338292598724,8.21635437011719
19.197614282,-0.460020154714584,1.00558376312256,8.13739204406738
19.217172668,-0.0987039357423782,1.13240337371826,8.06321430206299
19.236730116,0.343968242406845,0.917049288749695,8.50588607788086
19.256286834,0.511465847492218,0.637089014053345,8.90788078308106
19.275844386,0.29132616519928,0.402592420578003,9.49412250518799
19.295402772,0.0807577669620514,0.354735970497131,10.1617193222046
19.314960272,0.535394072532654,0.412163704633713,10.5015001296997
19.334516991,1.05224370956421,0.735194742679596,10.1976118087769
19.354074543,0.958923697471619,0.900299549102783,9.87218761444092
19.373632928,0.621535658836365,0.220737889409065,10.4057874679565
19.393190376,0.91346001625061,-0.573679208755493,11.1954193115234
19.412747147,1.63848531246185,-0.925424158573151,11.3940229415894
19.432304647,1.51166570186615,-0.767497837543488,11.4753789901733
19.451863032,1.16949212551117,-0.336789786815643,11.7146615982056
19.471420532,0.870389223098755,-0.245862528681755,11.6787691116333
19.490977251,1.01395857334137,-0.0233300216495991,12.107084274292
19.510534803,0.614357233047485,-0.537786900997162,13.5188493728638
19.530093136,0.245862528681755,-1.95912349224091,15.5383920669556
19.549650636,0.631106972694397,-2.81814694404602,16.1700973510742
19.569207355,1.06899356842041,-2.52861523628235,13.7700958251953
19.588764907,1.11685001850128,-1.36809635162354,10.137791633606
19.608323241,1.2317054271698,-0.422931402921677,7.42433023452759
19.627880741,1.71744847297668,-0.293718993663788,6.79980373382568
19.647437459,1.89451730251312,-0.911067247390747,7.50807905197144
19.666995011,1.48534464836121,-1.2604193687439,8.40778064727783
19.686553345,0.966102123260498,-1.20538437366486,8.98445129394531
19.706110845,0.911067247390747,-1.09052896499634,8.72841835021973
19.725667563,1.14795660972595,-0.927816987037659,8.2761754989624
19.745225116,1.39681017398834,-0.80817586183548,8.19242668151856
19.764783449,1.40159583091736,-0.55932229757309,8.29292488098145
19.784340949,1.53798675537109,-0.0616151839494705,8.23071193695068
19.803897668,1.34895372390747,0.364307254552841,8.04646396636963
19.823455168,1.14556384086609,0.500698149204254,8.39342403411865
19.843013553,1.15513515472412,0.192024022340775,9.08973503112793
19.862571053,1.43030977249146,-0.219541475176811,9.52283573150635
19.882127772,1.50448727607727,-0.666999340057373,9.39601612091065
19.901685272,1.18384897708893,-0.798604547977448,9.36490917205811
19.921243657,0.915852844715118,-0.652642369270325,9.30508899688721
19.940801105,1.06420791149139,-0.439681172370911,9.00120067596436
19.960357824,1.27716910839081,-0.377467781305313,8.95095157623291
19.979915376,1.12402844429016,-0.30089744925499,9.06102085113525
19.999473709,0.834496915340424,-0.284147679805756,9.19980525970459
20.019031209,0.848853826522827,-0.272183567285538,9.57069206237793
20.038587928,0.990030348300934,-0.286540508270264,9.71665477752686
20.058145428,0.753140926361084,-0.351146727800369,9.893723487854
20.077703813,0.46839502453804,-0.501894533634186,10.3148603439331
20.097261261,0.410967290401459,-0.78903329372406,10.7838535308838
20.11681798,0.600000262260437,-1.26520502567291,11.0327072143555
20.136375532,0.920638501644135,-1.18384897708893,10.5708923339844
20.155933866,0.79621171951294,-0.714855790138245,9.81476020812988
20.175491366,0.135792687535286,-0.990030348300934,10.0037937164307
20.195048084,-0.239880472421646,-1.48055899143219,11.1092777252197
20.214605584,-0.0604187734425068,-1.82273268699646,11.1523485183716
20.23416397,0.733998358249664,-1.45423793792725,9.75972557067871
20.253721418,1.2436695098877,-1.01635146141052,8.24506855010986
20.273278136,1.08813607692719,-0.482751965522766,7.80239629745483
20.292835636,0.99481600522995,-0.135792687535286,7.99621486663818
20.312394022,0.937388241291046,-0.446859627962112,7.99860811233521
20.33195147,0.54017972946167,-0.800997376441956,8.32403182983398
20.351508188,0.0568295381963253,-1.44466662406921,9.673583984375
20.371065688,0.154935270547867,-1.97108769416809,10.8747806549072
20.390624074,0.360718011856079,-2.24147653579712,10.9106731414795
20.410181522,0.0927218794822693,-2.24865508079529,10.4488582611084
20.429738241,-0.0675972402095795,-1.83469676971436,10.1066846847534
20.449295793,-0.261415868997574,-1.42313122749329,9.87697410583496
20.468854126,-0.213559418916702,-1.05702936649323,9.59222793579102
20.488411574,-0.0747757107019424,-0.887139022350311,9.24048328399658
20.507968345,-0.445663213729858,-0.705284476280212,9.40080165863037
20.527525845,-1.00319087505341,-0.50907301902771,9.92722320556641
20.547084178,-0.833300471305847,-0.597607433795929,9.90090179443359
20.566641678,-0.278165638446808,-1.20059871673584,9.93200874328613
20.586198397,-0.058025948703289,-1.63130688667297,10.3507528305054
20.605755897,0.0424726009368897,-1.74376952648163,10.6929264068604
20.62531423,0.164506554603577,-1.48295187950134,10.6331052780151
20.64487173,0.384646236896515,-1.06660068035126,10.0348997116089
20.664428449,0.324825674295425,-0.954138040542603,9.62333488464356
20.683985949,0.150149613618851,-1.42313122749329,9.95832920074463
20.703544282,0.114257283508778,-2.11226415634155,10.7240333557129
20.723101782,0.317647218704224,-2.20558428764343,10.9058876037598
20.742658501,0.30089744925499,-1.79880440235138,9.89611625671387
20.762216001,-0.103489577770233,-1.27716910839081,9.12084197998047
20.781774334,-0.273379981517792,-0.942173898220062,9.3792667388916
20.801331834,0.26979073882103,-0.77706915140152,9.59462070465088
20.820888501,0.844068169593811,-0.542572557926178,9.28355407714844
20.840446053,0.839282512664795,-0.317647218704224,9.31705284118652
20.860004386,0.48993045091629,-0.116650104522705,9.61137008666992
20.879561834,0.387039065361023,-0.064008004963398,9.79561805725098
20.899118553,0.473180681467056,-0.298504620790482,10.0277214050293
20.918676053,0.554536640644074,-0.568893611431122,10.4129657745361
20.938234438,0.272183567285538,-0.518644332885742,10.6953191757202
20.957791886,-0.101096756756306,-0.387039065361023,10.7407827377319
20.977348605,-0.14656038582325,-0.11186445504427,10.4847507476807
20.996906105,0.0664008259773254,0.120239339768887,9.95832920074463
21.016464491,0.217148661613464,0.158524498343468,9.68794059753418
21.036021938,0.0472582466900349,0.062811590731144,9.72383308410645
21.055578657,-0.28534409403801,-0.064008004963398,10.0516500473022
21.075136157,-0.306879490613937,-0.109471634030342,10.1880407333374
21.094694491,-0.0843469947576523,0.239880472421646,10.0444707870483
21.114251991,0.0664008259773254,0.82372921705246,9.47019386291504
21.133808657,-0.467198610305786,0.663410067558289,8.96770095825195
21.153366209,-0.60598236322403,0.0412761904299259,9.673583984375
21.172924543,-0.366700083017349,-1.00678014755249,11.202597618103
21.192481991,-0.591625392436981,-1.77726900577545,12.4014015197754
21.212038709,-0.952941596508026,-1.82751834392548,12.6478624343872
21.231596209,-1.2113664150238,-1.57148623466492,11.544771194458
21.251154595,-1.22333061695099,-0.99481600522995,10.0947208404541
21.270712043,-1.22333061695099,-0.382253408432007,8.80259609222412
21.290268761,-1.19461667537689,0.113060869276524,7.7282190322876
21.309826261,-1.32382917404175,0.440877586603165,7.52243614196777
21.329384595,-1.43150615692139,0.31645080447197,8.37906646728516
21.348942043,-1.55593287944794,0.141774743795395,9.08734226226807
21.368498761,-1.62053918838501,0.122632160782814,9.06580638885498
21.388056313,-1.37407839298248,-0.0855434089899063,9.39123058319092
21.407614647,-1.20418798923492,-0.377467781305313,10.1234340667725
21.427172095,-0.99122679233551,-0.513858675956726,10.5469636917114
21.446728813,-1.04865455627441,-0.178863495588303,10.0899353027344
21.466286313,-1.33579325675964,0.347557485103607,9.2189474105835
21.485844647,-1.49850523471832,0.632303357124329,9.02512836456299
21.505402147,-1.57986116409302,0.610767960548401,9.1591272354126
21.524958813,-1.45543432235718,0.438484758138657,9.1782693862915
21.544516366,-1.38604247570038,0.570089995861054,8.94855880737305
21.564074699,-1.33100759983063,0.759122967720032,8.88873767852783
21.583632147,-1.01754784584045,0.608375132083893,8.91505908966065
21.603188866,-0.857228696346283,0.306879490613937,8.75952529907227
21.622746366,-0.744766056537628,0.000598205660935491,8.82173919677734
21.642304699,-0.641874670982361,-0.0233300216495991,8.91027355194092
21.661862199,-0.589232563972473,0.601196706295013,8.42692279815674
21.681418866,-0.658624410629273,1.30229377746582,7.30229663848877
21.700976418,-0.658624410629273,1.37647128105164,6.74716186523438
21.720534751,-0.373878538608551,0.694516777992249,7.48654365539551
21.740092199,0.360718011856079,0.359521597623825,8.42453002929688
21.759648918,0.659820854663849,0.340379029512405,8.47956562042236
21.779206418,-1.52961182594299,1.15872430801392,7.88853788375855
21.798764751,-3.40319204330444,1.59421813488007,7.89571666717529
21.818322251,-2.86002135276794,1.34536457061768,8.40060234069824
21.837878918,-0.864407181739807,1.83110749721527,8.503493309021
21.85743647,0.157328084111214,2.96051979064941,8.30728244781494
21.876994803,-1.45064878463745,1.95314145088196,9.76211833953857
21.896552251,-3.3361930847168,-0.815354287624359,14.8588304519653
21.91610897,-2.38145685195923,-2.91864538192749,18.6179542541504
21.93566647,0.437288343906403,-2.49272298812866,16.3447723388672
21.955224803,2.06440782546997,0.445663213729858,11.4203443527222
21.974782251,0.911067247390747,2.51784753799438,8.47238636016846
21.99433897,-0.160917326807976,1.52004063129425,10.2478609085083
22.01389647,1.19820594787598,-0.602393090724945,14.0811634063721
22.033454855,2.85882496833801,-0.748355269432068,14.9090795516968
22.053012303,2.21036982536316,0.833300471305847,12.5760774612427
22.072569022,0.387039065361023,2.26899409294128,10.640284538269
22.092126522,-0.402592420578003,2.11346054077148,10.2957172393799
22.111684855,-0.0675972402095795,1.03908324241638,10.8628168106079
22.131242303,0.202791720628738,0.572482824325562,11.2002048492432
22.150799022,0.064008004963398,0.615553617477417,10.6139631271362
22.170356522,-0.153738856315613,0.852443039417267,8.9916296005249
22.189914855,-0.244666114449501,1.05104732513428,7.39083099365234
22.209472303,-0.148953214287758,1.15633153915405,6.52462911605835
22.229029022,-0.125024989247322,1.27597272396088,6.31645345687866
22.248586522,-0.0340977236628532,1.44586312770844,6.5150580406189
22.268144855,-0.0197407864034176,1.62532472610474,6.98405122756958
22.287702303,-0.0963111147284508,1.66839563846588,7.29990386962891
22.307259022,-0.0771685317158699,1.26161575317383,7.60618495941162
22.326816522,-0.0460618361830711,0.751944541931152,8.19960498809815
22.346374855,-0.0221336092799902,0.629910588264465,9.4055871963501
22.365932303,0.0329013131558895,0.917049288749695,9.88654518127441
22.385489022,-0.0604187734425068,1.26400852203369,9.45105171203613
22.405046522,-0.0963111147284508,1.33818602561951,9.47976493835449
22.424604855,0.0496510714292526,1.29272246360779,9.87458038330078
22.444162303,0.552143812179565,1.41954207420349,9.55633544921875
22.463719022,1.04745817184448,1.80478644371033,8.74516868591309
22.483276522,1.07856476306915,1.8526428937912,8.30010318756104
22.502834855,0.475573509931564,0.933799028396606,9.37448120117188
22.522392303,0.131007045507431,0.603589534759522,11.0853490829468
22.541949022,0.351146727800369,1.16829562187195,10.7216396331787
22.561506522,0.320040017366409,1.85982143878937,9.06341361999512
22.581064855,0.104685992002487,2.5106692314148,8.91745185852051
22.600622303,-0.0245264321565628,1.58464682102203,10.9130659103394
22.62017897,-0.467198610305786,0.0771685317158699,12.9996070861816
22.63973647,-0.996012449264526,-1.27477622032166,13.1599264144897
22.659294803,-0.957727253437042,-0.45882374048233,12.0424785614014
22.678852251,-0.14656038582325,1.72343051433563,10.9346008300781
22.69840897,-0.108275227248669,3.01076912879944,9.05384254455566
22.71796647,-1.39322102069855,1.51286208629608,8.95334434509277
22.737524803,-2.35992121696472,-0.0472582466900349,11.6141624450684
22.757082199,-1.86460709571838,-0.894317448139191,14.0907344818115
22.776638918,-1.25443732738495,-0.135792687535286,13.9495582580566
22.796196418,-0.821336388587952,0.517447888851166,12.2339038848877
22.815754751,-0.500698149204254,0.534197628498077,11.4490585327148
22.835312199,-0.242273285984993,0.708873689174652,10.4871435165405
22.854868866,-0.488734036684036,1.46500563621521,9.10169887542725
22.874426366,-1.08933246135712,2.13978171348572,8.08474922180176
22.893984699,-1.73060894012451,2.55134725570679,7.84546709060669
22.913542147,-1.33340036869049,2.12542462348938,7.95075130462647
22.933098813,-0.60598236322403,1.40279221534729,7.6540412902832
22.952656313,-0.536590456962585,1.17308127880096,6.91465902328491
22.972214647,-0.921834945678711,1.15633153915405,6.85483884811401
22.991772095,-0.914656460285187,0.986441135406494,7.81196784973145
23.011328761,-0.668195724487305,0.622732102870941,8.56331443786621
23.030886261,-0.60598236322403,0.641874670982361,8.25224685668945
23.050444595,-0.7926225066185,1.23290181159973,7.82393169403076
23.070002043,-0.565304338932037,2.39581370353699,7.26161861419678
23.089558709,-0.163310140371323,3.30987191200256,6.46241569519043
23.109116209,-0.486341208219528,2.61116766929626,6.42652320861816
23.128674543,-1.71864485740662,1.141974568367,8.73320484161377
23.148231938,-2.36470699310303,1.0151549577713,12.4995069503784
23.167788657,-2.3431715965271,2.14456725120544,13.0259284973145
23.187346105,-1.23768746852875,2.38863515853882,10.7431755065918
23.206904438,-0.366700083017349,1.06301140785217,10.317253112793
23.226461886,-0.134596273303032,-0.011365907266736,11.944372177124
23.246018553,0.166899383068085,-0.47796630859375,12.5282211303711
23.265576053,0.454038083553314,0.318843603134155,12.2267255783081
23.285134386,1.0929217338562,1.71625208854675,11.78883934021
23.304691782,0.750748097896576,1.21375930309296,11.3964157104492
23.324248501,-0.668195724487305,0.192024022340775,12.7842531204224
23.343805949,-1.05583298206329,0.239880472421646,13.514063835144
23.363364282,-0.486341208219528,0.412163704633713,11.9611225128174
23.38292173,0.0496510714292526,0.797408163547516,10.9752788543701
23.402478397,0.652642369270325,0.945763170719147,10.982458114624
23.422035845,0.958923697471619,0.49351966381073,10.6235342025757
23.441594178,0.635892629623413,0.134596273303032,10.3962163925171
23.461151626,0.17168502509594,-0.10229317098856,10.4919290542603
23.480708293,-0.062811590731144,-0.195613250136375,10.5517492294312
23.500265741,0.135792687535286,0.0723828822374344,10.178469657898
23.519824074,0.0664008259773254,0.637089014053345,9.06102085113525
23.539381522,-0.218345060944557,1.01754784584045,8.16849803924561
23.558938188,-0.424127817153931,1.09172534942627,7.9483585357666
23.578495636,-0.393021106719971,1.01036942005157,7.94118022918701
23.59805397,-0.230309173464775,0.969691395759583,7.91725206375122
23.617611366,0.152542442083359,0.945763170719147,7.86700248718262
23.637168032,0.470787853002548,0.859621524810791,7.63968467712402
23.656725532,0.422931402921677,0.766301453113556,7.67318391799927
23.676283813,0.547358155250549,1.09411811828613,7.75693273544312
23.695841261,0.568893611431122,1.75692999362946,7.55354309082031
23.715397928,0.867996394634247,1.78803670406342,7.3238320350647
23.734955376,1.3992030620575,0.797408163547516,7.33818864822388
23.754513709,1.75812637805939,1.00558376312256,8.41735172271729
23.774071105,1.13599252700806,1.9914265871048,9.18305492401123
23.793627772,-0.440877586603165,2.43649172782898,8.7379903793335
23.813185272,-1.36929273605347,2.38863515853882,8.95573711395264
23.832743553,-1.27357983589172,1.48893392086029,10.3076820373535
23.852300949,-1.29990088939667,-1.06420791149139,12.8201456069946
23.871857668,-0.692123949527741,-1.29391884803772,15.6317119598389
23.891415116,-1.28793680667877,0.278165638446808,13.0139636993408
23.910973397,-1.25443732738495,1.21375930309296,8.61117076873779
23.930530793,-1.10368943214417,0.498305320739746,7.44586563110352
23.950087511,-1.37647128105164,-1.57627189159393,11.4945220947266
23.969644959,-1.48414826393127,-1.09770739078522,16.6534481048584
23.989203241,-2.28095817565918,0.132203444838524,16.5242347717285
24.008760688,-2.54656147956848,0.462412983179092,13.9902353286743
24.028317303,-1.48414826393127,-0.114257283508778,12.8033962249756
24.047874803,-0.335593372583389,-0.408574461936951,11.6787691116333
24.067433084,-0.0125623187050223,0.25663024187088,10.4177513122559
24.08699048,-0.25663024187088,1.07976126670837,9.24766159057617
24.106547147,-0.60598236322403,1.55354011058807,8.15653419494629
24.126104595,-0.622732102870941,1.53679037094116,7.70429086685181
24.145662928,-0.596411049365997,1.0319048166275,7.95793008804321
24.165220324,-0.49351966381073,0.620339274406433,8.37428092956543
24.184776991,-0.548554599285126,0.397806763648987,8.48913669586182
24.204334438,-0.706480860710144,0.49351966381073,8.29053211212158
24.22389272,-0.785444021224976,0.694516777992249,8.13260555267334
24.243450168,-0.615553617477417,0.917049288749695,7.8550386428833
24.263006782,-0.735194742679596,0.97926265001297,7.58943510055542
24.282564282,-0.948155999183655,1.03908324241638,7.63968467712402
24.302122563,-0.720837831497192,1.29272246360779,7.79521799087524
24.321679959,0.114257283508778,1.9914265871048,8.06082153320313
24.341236626,0.633499801158905,2.5920250415802,8.38863754272461
24.360794074,0.561715126037598,2.12063908576965,8.64945602416992
24.380352355,0.45882374048233,1.3094722032547,9.67119121551514
24.399909751,0.305683106184006,0.845264613628388,11.1667051315308
24.419466418,-0.14656038582325,0.297308206558228,11.3988084793091
24.439023866,-0.270987153053284,-0.138185501098633,10.2574329376221
24.458582199,0.231505587697029,0.105882398784161,9.61376285552979
24.478139595,0.394217520952225,0.668195724487305,9.85783100128174
24.497696209,-0.199202477931976,0.622732102870941,10.7336044311523
24.517253657,-0.826122045516968,0.725623488426209,11.7601251602173
24.536811991,-1.19222390651703,0.766301453113556,12.5042924880981
24.556369386,-0.460020154714584,1.72343051433563,12.367901802063
24.575926001,-0.47437709569931,2.2043879032135,10.7216396331787
24.595483449,-0.919442117214203,1.30229377746582,10.2717895507813
24.615041782,-0.677767038345337,1.00558376312256,11.8797664642334
24.634599178,-0.148953214287758,0.864407181739807,12.3870449066162
24.654155793,0.0855434089899063,0.952941596508026,11.6476621627808
24.673713241,0.308075904846191,0.651445984840393,11.2648105621338
24.693271574,0.78903329372406,-0.0592223592102528,11.4538440704346
24.71282897,0.877567708492279,-0.343968242406845,11.7625179290771
24.732385584,0.645463883876801,-0.0257228426635265,11.3198461532593
24.751943032,0.533001244068146,0.4648058116436,10.1425771713257
24.771501313,0.518644332885742,0.716052174568176,8.9246301651001
24.791058709,0.473180681467056,0.804586589336395,8.01535797119141
24.810615376,0.2410768866539,0.809372246265411,7.69232654571533
24.830172824,0.164506554603577,0.759122967720032,8.01535797119141
24.849731105,0.181256309151649,0.751944541931152,8.47477912902832
24.869288501,0.327218502759933,0.716052174568176,8.62792015075684
24.888845168,0.401396006345749,0.766301453113556,8.45563697814941
24.908402616,0.205184549093246,0.749551713466644,8.57767105102539
24.927960897,-0.0532403029501438,0.637089014053345,9.13519859313965
24.947518293,-0.230309173464775,0.701695263385773,9.80279636383057
24.967074907,-0.414556533098221,0.873978495597839,10.0875425338745
24.986632355,-0.457627326250076,1.03908324241638,9.96550846099854
25.006190636,-0.455234497785568,0.955334424972534,9.65444087982178
25.025748032,-0.203988134860992,0.799800992012024,9.13041305541992
25.045304699,0.00179461692459881,0.759122967720032,8.86720275878906
25.064862147,-0.125024989247322,1.08933246135712,8.60159873962402
25.084420428,-0.318843603134155,1.46739852428436,7.91485929489136
25.103977824,-0.261415868997574,1.6444673538208,7.41954469680786
25.123534438,0.147756800055504,1.24965167045593,7.47218704223633
25.143091886,0.11186445504427,0.940977513790131,8.06321430206299
25.162650168,0.183649137616158,1.15633153915405,8.36231708526611
25.182207563,-0.0675972402095795,1.30468654632568,7.80718231201172
25.20176423,-0.304486691951752,1.17308127880096,7.42911624908447
25.221321678,0.186041966080666,1.68514537811279,9.45583724975586
25.240879959,0.353539556264877,0.821336388587952,11.7122688293457
25.260437355,-0.436091929674149,-0.518644332885742,14.0955200195313
25.27999397,-1.99621224403381,-0.626321315765381,15.0861482620239
25.299551418,-2.86719965934753,0.718445003032684,13.2412824630737
25.319109699,-1.98664104938507,1.82392907142639,11.0303144454956
25.338667095,-0.943370342254639,0.77347993850708,9.79322528839111
25.358223761,-0.469591438770294,-0.674177765846252,10.9752788543701
25.377781209,-0.498305320739746,-1.39202451705933,13.2029972076416
25.397339491,-0.938584685325623,-0.604785919189453,14.0955200195313
25.416896834,-1.27118706703186,0.594018220901489,12.2123689651489
25.436453501,-1.26400852203369,1.07258272171021,10.5924272537231
25.456010949,-1.22811627388,0.608375132083893,10.6474628448486
25.47556923,-1.17786693572998,0.395413935184479,11.5926275253296
25.495126626,-0.986441135406494,0.553340256214142,11.5519495010376
25.514683241,-0.754337310791016,0.828514814376831,10.4105730056763
25.534240688,-0.436091929674149,1.13958179950714,8.70688343048096
25.55379897,-0.0532403029501438,1.16111719608307,7.20179796218872
25.573356366,-0.141774743795395,0.952941596508026,6.68016242980957
25.592913032,-0.445663213729858,0.728016316890717,7.1228346824646
25.61247048,-0.591625392436981,0.859621524810791,7.41954469680786
25.632028761,-0.704088091850281,1.05822587013245,7.24486875534058
25.651586105,-0.907477974891663,0.921834945678711,6.96251583099365
25.671142772,-0.914656460285187,0.699302434921265,7.13479900360107
25.69070022,-1.07018995285034,0.663410067558289,7.86700248718262
25.710258501,-1.38604247570038,0.866800010204315,8.56570720672607
25.729815897,-1.09651100635529,0.883549749851227,9.02273559570313
25.749372511,-0.438484758138657,0.361914426088333,9.80997467041016
25.768929959,0.119042925536633,0.373878538608551,10.4177513122559
25.788488241,0.0400797799229622,0.536590456962585,10.3722877502441
25.808045636,-0.235094830393791,0.50548380613327,10.2502536773682
25.827602251,-0.515055060386658,-0.0592223592102528,10.7862462997437
25.847159699,-0.692123949527741,-0.547358155250549,12.0640134811401
25.86671798,-0.613160789012909,-0.181256309151649,12.7268257141113
25.886275376,-0.14656038582325,0.771087110042572,11.5686988830566
25.905832043,0.578464865684509,2.01056933403015,10.2406826019287
25.925389438,0.26979073882103,1.44107747077942,9.83868885040283
25.94494772,-0.333200544118881,0.21595224738121,11.86301612854
25.964505116,0.0975075215101242,-0.573679208755493,13.8370952606201
25.984061782,1.10967147350311,-0.643071115016937,14.0285205841064
26.003619178,1.42313122749329,-0.0472582466900349,12.6239337921143
26.023177459,0.932602643966675,0.560518682003021,11.0016002655029
26.042734855,0.233898416161537,0.854835867881775,10.2909317016602
26.062291522,-0.0197407864034176,0.701695263385773,10.4775724411011
26.081848918,0.0185443758964539,0.326022088527679,10.8915300369263
26.101407199,0.0424726009368897,0.0771685317158699,10.8053884506226
26.120964595,-0.412163704633713,0.115453690290451,10.3866453170776
26.140521261,-0.783051192760468,0.328414916992188,9.80758190155029
26.160078657,-0.594018220901489,0.720837831497192,9.13519859313965
26.179636938,0.190827608108521,1.12761771678925,8.64945602416992
26.199194334,0.858425140380859,0.747158885002136,8.37428092956543
26.218751001,1.28434753417969,0.220737889409065,8.64466953277588
26.238308397,1.20299160480499,-0.0233300216495991,9.29551792144775
26.257866678,0.568893611431122,0.101096756756306,9.20459079742432
26.277424074,0.408574461936951,0.735194742679596,8.39342403411865
26.296980688,0.681356251239777,0.945763170719147,7.71386194229126
26.316538136,0.549750983715057,0.998405277729034,7.79282522201538
26.336096418,-0.227916359901428,1.26879417896271,8.48195838928223
26.355653813,-0.632303357124329,1.89810657501221,8.77866840362549
26.375210428,-0.562911510467529,1.99621224403381,8.10389232635498
26.394767876,-0.558125853538513,1.78803670406342,7.25922584533691
26.414326157,-1.63489603996277,1.07736837863922,7.5607213973999
26.433883501,-1.85982143878937,0.182452723383904,8.75952529907227
26.453440168,-0.582054078578949,-0.355932354927063,8.78106117248535
26.472997563,0.372682124376297,-0.0400797799229622,7.94357299804688
26.492555845,0.762712240219116,0.78065836429596,7.24726152420044
26.512113241,0.662213683128357,1.60139656066895,6.86919546127319
26.531669855,0.621535658836365,1.7258232831955,7.59661388397217
26.551227303,0.877567708492279,1.8119649887085,9.45105171203613
26.570785532,0.619142830371857,1.39800667762756,10.4727869033813
26.590342928,-0.842871785163879,0.342771857976913,12.3152599334717
26.609899543,-1.75932288169861,-0.379860579967499,14.6889400482178
26.629456991,-1.19700956344605,0.017347963526845,14.6362981796265
26.649015272,-0.407378047704697,1.03908324241638,12.9637145996094
26.668572616,-0.7232306599617,0.964905738830566,11.422737121582
26.688129282,-2.09192514419556,-0.870389223098755,12.26979637146
26.707686678,-1.96271276473999,-1.48295187950134,14.5118713378906
26.727244959,-1.04626166820526,-0.394217520952225,14.5549421310425
26.746802303,-1.22093772888184,0.952941596508026,12.0137643814087
26.76635897,-1.83350038528442,1.85742855072021,10.2071828842163
26.785916366,-1.81914341449738,1.57746827602386,9.19262599945068
26.805474647,-1.1706885099411,0.778265535831451,8.91984462738037
26.825031991,-0.529412031173706,0.0317048989236355,9.65683364868164
26.844588657,-0.364307254552841,-0.308075904846191,10.5349998474121
26.864146053,-0.515055060386658,0.206380948424339,9.89133071899414
26.883704334,-0.589232563972473,0.862014353275299,8.27378273010254
26.903261678,-0.349950313568115,1.38364970684052,6.6083779335022
26.922818345,-0.0747757107019424,1.38604247570038,5.99581527709961
26.942375741,0.487537622451782,0.706480860710144,7.03430032730103
26.961934022,-0.00538385100662708,0.28534409403801,8.67816925048828
26.981491366,-0.510269403457642,0.2757728099823,9.59462070465088
27.00104798,-0.7926225066185,0.778265535831451,9.07777118682861
27.020605428,-0.986441135406494,1.2807582616806,7.91007328033447
27.040163657,-1.07976126670837,1.25922286510468,7.46261548995972
27.059721053,-0.390628308057785,1.16350996494293,8.17089080810547
27.079277668,0.0520438924431801,1.23768746852875,9.21416187286377
27.098835063,-0.242273285984993,1.40279221534729,10.1736841201782
27.118393345,-0.816550731658936,1.58225393295288,10.5182504653931
27.137950688,-1.01036942005157,1.49132668972015,10.6929264068604
27.157507303,-0.44327038526535,0.909870803356171,10.5230360031128
27.177064751,0.77706915140152,0.649053156375885,10.0444707870483
27.196623032,0.899103105068207,0.857228696346283,10.3698949813843
27.216180376,0.312861561775208,0.29491537809372,11.2648105621338
27.235736991,1.02113711833954,-0.10229317098856,11.9084796905518
27.255294386,2.10030007362366,-0.071186475455761,11.544771194458
27.274852668,0.422931402921677,0.065204419195652,11.9180517196655
27.294410011,-1.41714918613434,0.263808697462082,14.1385908126831
27.313966626,-0.337986201047897,0.416949331760407,14.9186506271362
27.333524022,1.73659098148346,0.567697167396545,13.4135656356812
27.353082303,1.09052896499634,1.7425731420517,11.944372177124
27.372639647,-0.354735970497131,2.25463724136353,11.3222389221191
27.392196261,-0.0771685317158699,1.57746827602386,10.3244314193726
27.411753657,0.666999340057373,0.651445984840393,9.38405227661133
27.431311938,0.733998358249664,0.653838813304901,9.01316452026367
27.450869282,0.0448654256761074,1.30229377746582,8.03450012207031
27.470425897,-0.323629260063171,1.67078840732574,6.78066110610962
27.489983293,-0.184845551848412,1.63011038303375,6.07477855682373
27.509541574,0.346361070871353,1.46500563621521,6.40020227432251
27.529098918,0.724427044391632,1.2400803565979,7.32861757278442
27.548655532,0.205184549093246,1.09890377521515,8.14457035064697
27.568212928,-0.55573308467865,1.06061863899231,9.14955520629883
27.587771157,-0.699302434921265,0.926620543003082,9.9535436630249
27.607328553,-0.115453690290451,0.519840717315674,10.3005037307739
27.626885116,0.470787853002548,0.342771857976913,10.5086784362793
27.646442563,0.444466799497604,0.531804859638214,10.4703941345215
27.666000793,-0.0699900612235069,1.20418798923492,9.90808010101318
27.685558136,-0.385842651128769,1.88853526115417,8.4771728515625
27.705114751,-0.122632160782814,2.29052948951721,7.01755046844482
27.724672147,0.226719945669174,2.53699016571045,6.65623426437378
27.744230376,0.439681172370911,2.52263331413269,6.85244607925415
27.76378772,0.339182615280151,1.98664104938507,7.1395845413208
27.783344334,-0.244666114449501,1.20418798923492,8.15174865722656
27.80290173,-0.177667081356049,0.955334424972534,9.29073238372803
27.822460011,0.370289295911789,1.45064878463745,9.83150959014893
27.842017355,-0.101096756756306,1.18025982379913,10.0707921981812
27.861573918,-0.390628308057785,0.854835867881775,11.2337045669556
27.881131366,-0.263808697462082,-0.176470667123795,12.1094770431519
27.900689595,-0.326022088527679,-0.181256309151649,12.7316112518311
27.920246938,-0.902692317962647,1.30468654632568,12.4396867752075
27.939803553,-1.85982143878937,2.65184569358826,11.2815608978271
27.959360949,-2.52263331413269,2.59681081771851,11.4275226593018
27.978919178,-2.65902423858643,0.739980399608612,14.2151613235474
27.998476522,-1.92921328544617,-0.664606511592865,16.4668064117432
28.018033084,-1.45782721042633,-0.877567708492279,16.6008052825928
28.03759048,-1.79282236099243,0.603589534759522,15.0454702377319
28.057148761,-1.81914341449738,2.06799697875977,11.5950202941895
28.076706105,-1.26640141010284,2.80020070075989,7.90050220489502
28.096262668,-0.598803877830505,2.86002135276794,6.15613460540772
28.115820063,-0.177667081356049,2.35752844810486,6.08913564682007
28.135378293,-0.0484546571969986,1.75932288169861,6.76391124725342
28.154935636,-0.0843469947576523,1.30707931518555,7.53440046310425
28.174492251,0.0233300216495991,1.25922286510468,7.35254573822022
28.194049647,0.0472582466900349,2.11585330963135,6.94337320327759
28.213607876,0.035294134169817,3.69990205764771,6.69451951980591
28.23316522,-0.254237413406372,3.48694086074829,6.65623426437378
28.252721782,-0.869192838668823,1.70668077468872,7.5607213973999
28.272279178,-0.912263631820679,0.546161770820618,10.398609161377
28.291837407,-1.20179522037506,0.567697167396545,12.5186500549316
28.311394751,-1.29272246360779,0.996012449264526,11.4012012481689
28.330951366,-0.55573308467865,1.76171565055847,9.05384254455566
28.350508709,-0.058025948703289,1.73778748512268,8.88873767852783
28.370066938,0.473180681467056,1.16590285301209,9.42951583862305
28.389624282,1.39441740512848,1.67796683311462,8.69970512390137
28.409180897,0.0161515530198813,1.00558376312256,8.91984462738037
28.428738241,-0.799800992012024,1.02472627162933,13.0785703659058
28.44829647,0.114257283508778,1.70668077468872,14.6578330993652
28.467853813,1.47338056564331,2.8911280632019,10.6977119445801
28.487410428,1.3992030620575,2.355135679245,6.85483884811401
28.506967772,1.22452700138092,1.07258272171021,8.30488872528076
28.526526001,1.70548439025879,1.11804640293121,12.2075824737549
28.546083345,1.05942225456238,1.37647128105164,12.9110727310181
28.565639907,-0.249451756477356,1.33818602561951,12.7579317092896
28.585197303,-0.0508474819362164,0.52462637424469,14.1768760681152
28.604755532,0.80817586183548,-0.659820854663849,14.0739841461182
28.624312876,1.38484609127045,-1.13120687007904,13.0666065216064
28.643869438,1.07138633728027,-0.303290277719498,12.0113716125488
28.663426834,0.0927218794822693,0.570089995861054,10.3435745239258
28.682985063,-0.359521597623825,1.18025982379913,8.50588607788086
28.702542355,-0.385842651128769,1.52961182594299,7.25683307647705
28.72209897,-0.14656038582325,1.68514537811279,6.76391124725342
28.741656395,0.164506554603577,1.83828604221344,6.69212675094605
28.761214104,-0.414556533098221,2.01535487174988,6.75434017181397
28.780771447,-0.280558466911316,2.25463724136353,8.22353363037109
28.80032801,1.14317107200623,1.53200471401215,10.1090774536133
28.819885406,2.07637190818787,0.926620543003082,10.7024974822998
28.839443635,2.31326127052307,1.07976126670837,9.90329456329346
28.859000927,2.14576363563538,1.5176477432251,9.01077175140381
28.878557489,2.13619232177734,1.43868458271027,8.97727203369141
28.898114885,2.43768811225891,1.03908324241638,10.1114702224731
28.917673114,2.52861523628235,0.981655478477478,10.7862462997437
28.937230406,1.48773753643036,1.08933246135712,10.3435745239258
28.956786968,-0.407378047704697,-0.123828575015068,10.6953191757202
28.976344364,-1.20658087730408,-1.57148623466492,13.6576337814331
28.995902593,-0.728016316890717,-1.99023020267487,15.3661088943481
29.015459885,-0.60598236322403,-0.736391186714172,12.8919305801392
29.035016447,-0.751944541931152,0.689731121063232,8.84805965423584
29.054573843,-0.763908624649048,1.7952151298523,6.20159816741943
29.074132072,-0.455234497785568,1.1012966632843,6.52223634719849
29.093689364,0.20039889216423,-0.20039889216423,8.85284519195557
29.113245927,0.54017972946167,-0.999601662158966,10.5469636917114
29.132803322,0.494716078042984,-0.97567343711853,11.0016002655029
29.152361499,0.434895515441895,-0.705284476280212,10.6713905334473
29.171918843,0.439681172370911,-0.588036179542542,10.7910318374634
29.191475406,0.482751965522766,-0.525822758674622,11.3342027664185
29.211032749,0.523429930210114,-0.444466799497604,11.140383720398
29.230590979,0.279362052679062,-0.147756800055504,10.6689977645874
29.25014827,-0.058025948703289,0.230309173464775,10.2071828842163
29.269704833,-0.328414916992188,0.467198610305786,9.81715297698975
29.289262229,-0.536590456962585,0.603589534759522,9.6592264175415
29.308820406,-0.55573308467865,0.670588552951813,9.22134017944336
29.328377749,-0.510269403457642,0.988833963871002,8.59202766418457
29.347934312,-0.656231582164764,1.15872430801392,8.35753154754639
29.367491656,-0.672981381416321,1.01754784584045,9.00837898254395
29.387049885,-0.199202477931976,0.641874670982361,9.75254726409912
29.406607177,0.456430912017822,0.309272319078445,10.2311115264893
29.426163739,0.494716078042984,0.306879490613937,10.7431755065918
29.445721135,-0.232702001929283,0.553340256214142,11.3772735595703
29.465279312,-0.670588552951813,0.615553617477417,11.4179515838623
29.484836656,-0.239880472421646,0.170488610863686,11.0733852386475
29.504393218,0.324825674295425,-0.123828575015068,11.0111713409424
29.523950562,0.303290277719498,0.203988134860992,11.0494565963745
29.543508791,-0.129810631275177,1.08693969249725,10.7431755065918
29.563066083,-0.629910588264465,1.81914341449738,10.171290397644
29.582622645,-0.436091929674149,1.45782721042633,9.90568733215332
29.602179989,0.655035197734833,0.718445003032684,10.1617193222046
29.621738218,1.49491596221924,-0.0903290584683418,10.2789678573608
29.64129551,1.55473649501801,-0.442073971033096,10.5565357208252
29.660852072,1.11445713043213,-0.470787853002548,10.5876417160034
29.680409468,0.839282512664795,-0.346361070871353,9.73579692840576
29.699967645,0.915852844715118,0.00538385100662708,8.68534755706787
29.719524989,1.04267251491547,0.567697167396545,8.02492904663086
29.739081552,1.02831554412842,1.0438688993454,7.75932550430298
29.758638895,1.02592265605927,1.46739852428436,7.66839838027954
29.778197124,0.954138040542603,1.73778748512268,7.81914615631104
29.797754416,0.78903329372406,2.00578355789185,8.17328357696533
29.817310979,0.690927565097809,2.11106777191162,8.24506855010986
29.836868322,0.74596244096756,1.96989119052887,8.35992431640625
29.856426552,0.611964404582977,1.5870395898819,8.93180847167969
29.875983843,0.382253408432007,1.07497560977936,9.6065845489502
29.895540406,0.190827608108521,0.550947427749634,10.2502536773682
29.915097802,0.317647218704224,0.306879490613937,10.3292169570923
29.934655979,0.597607433795929,0.498305320739746,10.1617193222046
29.954213322,0.69571316242218,0.996012449264526,10.178469657898
29.973769885,0.422931402921677,1.56071853637695,10.0061864852905
29.993327229,0.480359137058258,1.98424816131592,9.8004035949707
30.012885458,0.824925601482391,2.15653133392334,9.82433128356934
30.032442749,1.05702936649323,2.1756739616394,10.2813606262207
30.051999312,0.865603566169739,1.94357013702393,11.2313108444214
30.071556656,0.535394072532654,1.52721905708313,12.0927276611328
30.091114885,0.0903290584683418,0.940977513790131,12.4731864929199
30.110672177,0.0759721174836159,0.29491537809372,12.9876432418823
30.130228739,0.564107954502106,0.21595224738121,13.0833559036255
30.149786135,0.571286380290985,-0.145363971590996,11.9084796905518
30.169344312,-0.273379981517792,-0.647856712341309,11.2911319732666
30.188901656,-1.05583298206329,-1.27956187725067,11.3988084793091
30.208458218,-0.828514814376831,-1.65044939517975,11.1116704940796
30.228015562,-0.292522579431534,-1.5260226726532,9.92004489898682
30.247573791,-0.22552353143692,-1.0235298871994,8.61834907531738
30.267131083,-0.517447888851166,-0.444466799497604,8.08953475952148
30.286687645,-0.974476993083954,-0.133399859070778,8.03928565979004
30.306245041,-1.18743824958801,0.0317048989236355,8.33360290527344
30.325803218,-1.33818602561951,-0.0664008259773254,8.88155937194824
30.345360562,-1.40997076034546,-0.288933336734772,9.82433128356934
30.364917124,-1.141974568367,-0.475573509931564,10.6809616088867
30.384474468,-0.663410067558289,-0.583250522613525,10.9393873214722
30.404032697,-0.402592420578003,-0.360718011856079,10.0061864852905
30.423589989,-0.632303357124329,0.103489577770233,9.11844921112061
30.443146604,-0.854835867881775,0.51266223192215,8.79063224792481
30.462703947,-0.747158885002136,0.641874670982361,8.67816925048828
30.482262124,-0.804586589336395,0.553340256214142,8.64706325531006
30.501819468,-1.25683009624481,0.785444021224976,8.73081207275391
30.521376031,-1.81914341449738,1.16829562187195,8.68295478820801
30.540933427,-2.0608184337616,1.40997076034546,8.40060234069824
30.560491604,-2.01774764060974,1.2975081205368,8.45802974700928
30.580048947,-1.54875445365906,1.11086785793304,8.9581298828125
30.59960551,-1.14915311336517,1.19940233230591,9.40080165863037
30.619162854,-1.2807582616806,1.56311142444611,9.55633544921875
30.638721083,-1.33818602561951,1.80000078678131,9.57787036895752
30.658278374,-0.996012449264526,1.24965167045593,9.85304546356201
30.677834937,-0.670588552951813,0.0125623187050223,10.4273233413696
30.697392333,-0.749551713466644,-0.516251504421234,11.5375928878784
30.716950562,-1.26400852203369,-0.382253408432007,12.7268257141113
30.736507854,-0.708873689174652,0.029312077909708,12.3009033203125
30.756064416,0.537786900997162,0.299701035022736,11.0877418518066
30.775621812,1.5260226726532,0.888335406780243,10.4823579788208
30.795179989,1.19342029094696,1.1706885099411,10.3028964996338
30.814737333,0.427717059850693,1.06779706478119,10.3866453170776
30.834293895,-0.0867398232221603,0.515055060386658,10.9944219589233
30.853851239,-0.127417802810669,-0.492323249578476,12.0209426879883
30.873409468,0.296111792325974,-1.30827581882477,12.8584308624268
30.892966812,0.798604547977448,-1.13359975814819,12.3726873397827
30.912523374,0.96370929479599,-0.288933336734772,10.2071828842163
30.932080718,0.748355269432068,0.318843603134155,8.3503532409668
30.951638947,0.454038083553314,0.431306272745132,7.82871770858765
30.971196239,0.389431893825531,-0.0592223592102528,8.54417133331299
30.990752802,0.666999340057373,-0.437288343906403,9.0849494934082
31.010310197,1.11924278736115,-0.399003177881241,8.97487926483154
31.029868427,1.34656095504761,-0.0831505879759789,8.52263641357422
31.049425718,1.29870450496674,0.270987153053284,8.24028301239014
31.068982281,1.25802648067474,0.622732102870941,8.2091760635376
31.088539677,1.50209438800812,0.620339274406433,8.2761754989624
31.108097854,1.80119729042053,0.297308206558228,8.36710262298584
31.127655197,1.66959202289581,0.184845551848412,8.86720275878906
31.14721176,1.50209438800812,0.00299102836288512,9.48215770721436
31.166769104,1.35373938083649,-0.0209371987730265,10.1114702224731
31.186327333,0.923031330108643,-0.0855434089899063,10.7455682754517
31.205884624,0.444466799497604,0.304486691951752,10.5278215408325
31.225441239,0.29132616519928,0.728016316890717,9.78365325927734
31.244998583,0.556929469108582,1.04865455627441,9.32183837890625
31.264556812,0.846460998058319,0.972084224224091,9.24287605285645
31.284114104,0.903888761997223,0.845264613628388,9.453444480896
31.303670666,0.607178747653961,1.12283205986023,9.80518913269043
31.323228062,0.119042925536633,1.62053918838501,10.5062856674194
31.342786239,-0.000598205660935491,1.35493576526642,11.3461666107178
31.362343583,-0.292522579431534,0.330807715654373,12.0759773254395
31.381900145,-0.0867398232221603,-0.482751965522766,12.7076826095581
31.401457489,0.722034215927124,-0.568893611431122,12.6741828918457
31.421015718,1.34177529811859,-0.12143574655056,11.4418792724609
31.44057301,0.987637519836426,0.503090977668762,10.211968421936
31.460129624,0.207577362656593,0.500698149204254,10.317253112793
31.479686968,-0.0723828822374344,-0.343968242406845,11.7050905227661
31.499245197,0.358325183391571,-0.966102123260498,12.3894376754761
31.518802489,0.552143812179565,-1.19581305980682,11.5734853744507
31.538359052,0.238684058189392,-0.504287362098694,9.91525840759277
31.557916447,-0.251844584941864,0.182452723383904,8.95334434509277
31.577474624,-0.890728235244751,0.57487565279007,8.81934642791748
31.597031968,-1.82871472835541,0.534197628498077,9.07537841796875
31.616588531,-2.32402896881104,0.0149551415815949,9.44387245178223
31.636145874,-2.01535487174988,-0.688534736633301,10.1330060958862
31.655704104,-1.08215403556824,-1.03788685798645,10.5158576965332
31.675261395,-0.297308206558228,-0.657428026199341,9.63529872894287
31.694817958,-0.187238365411758,0.21595224738121,8.07757091522217
31.714375354,-0.548554599285126,0.905085146427155,7.11565637588501
31.733933583,-0.804586589336395,1.25443732738495,7.37647390365601
31.753490874,-0.641874670982361,1.24247312545776,8.06082153320313
31.773047437,-0.357128769159317,1.15872430801392,8.58724212646484
31.792604833,-0.299701035022736,1.12283205986023,8.86241722106934
31.81216301,-0.397806763648987,0.924227774143219,9.25962543487549
31.831720354,-0.263808697462082,0.883549749851227,9.98465061187744
31.851276916,0.454038083553314,0.725623488426209,10.6809616088867
31.87083426,1.12402844429016,0.409770876169205,11.0901346206665
31.890392489,0.454038083553314,0.13698910176754,11.7218399047852
31.909949781,-1.182652592659,0.175274252891541,12.5617208480835
31.929506343,-2.2043879032135,-0.00418743956834078,12.9182510375977
31.949063739,-2.19242382049561,-0.212363004684448,12.245867729187
31.968621968,-1.3094722032547,-0.430109858512878,11.099705696106
31.98817926,-0.615553617477417,-0.109471634030342,9.92961597442627
32.007735822,-0.594018220901489,0.239880472421646,9.08734226226807
32.027293218,-0.48394837975502,0.73040908575058,8.68774127960205
32.046851395,0.255433827638626,1.52721905708313,8.37188816070557
32.066408739,0.906281590461731,2.01774764060974,7.73061180114746
32.085965302,0.609571576118469,1.7258232831955,7.33818864822388
32.105522645,-0.113060869276524,0.426520645618439,8.8911304473877
32.125080874,0.0424726009368897,-0.219541475176811,10.9944219589233
32.144638166,1.26281213760376,-0.442073971033096,10.757532119751
32.164194781,2.17208480834961,-0.791426062583923,9.48933601379395
32.183752124,1.71026992797852,-0.954138040542603,10.2502536773682
32.203310354,0.803390204906464,-0.552143812179565,11.7050905227661
32.222867645,0.784247636795044,-0.131007045507431,10.8173532485962
32.242424208,1.51645135879517,-0.293718993663788,9.06341361999512
32.261981604,1.3704891204834,0.357128769159317,8.74995422363281
32.281539833,0.375074952840805,1.68514537811279,8.83609580993652
32.301097124,-0.0269192550331354,2.37906384468079,8.22831916809082
32.320653687,0.418145745992661,2.15413856506348,8.16371250152588
32.340211083,0.872782051563263,1.06301140785217,9.22851848602295
32.359769312,0.693320333957672,0.450448870658875,10.1282196044922
32.379326604,0.315254390239716,0.433699101209641,10.5278215408325
32.398883166,0.901495933532715,0.445663213729858,10.2143611907959
32.418440562,1.3704891204834,0.182452723383904,9.84825992584229
32.437998791,1.11206436157227,0.335593372583389,9.7669038772583
32.457556083,0.674177765846252,0.414556533098221,9.68554782867432
32.477112645,0.518644332885742,0.651445984840393,9.66640567779541
32.496670041,0.614357233047485,0.799800992012024,9.59462070465088
32.51622827,0.666999340057373,0.821336388587952,9.38165950775147
32.535785562,0.0903290584683418,0.950548768043518,9.33380317687988
32.555342177,-0.369092881679535,1.22811627388,8.96291542053223
32.57489952,-0.194416835904121,1.45782721042633,8.45085144042969
32.594457749,0.0975075215101242,1.6444673538208,8.19003391265869
32.614015093,-0.0532403029501438,1.82153618335724,8.13260555267334
32.633571656,-0.431306272745132,1.76410853862762,8.21874713897705
32.653128999,-0.390628308057785,1.23529469966888,8.26421165466309
32.672687229,0.2410768866539,0.622732102870941,8.5968132019043
32.692244572,0.860817968845367,0.615553617477417,8.47956562042236
32.711801135,0.951745212078095,1.16111719608307,7.73061180114746
32.731358531,0.666999340057373,1.53918313980103,6.93380165100098
32.75091676,0.439681172370911,1.85025012493134,6.78544664382935
32.770474052,0.504287362098694,1.70428788661957,7.53918600082398
32.790030666,0.533001244068146,1.69950222969055,8.28574657440186
32.80958801,0.12143574655056,2.04646158218384,9.02034282684326
32.829146239,-0.297308206558228,2.12781763076782,9.49651527404785
32.848703583,-0.00538385100662708,2.23070883750916,9.35533809661865
32.868260145,1.37766766548157,1.93160605430603,9.20937633514404
32.887817541,2.73200535774231,0.976869821548462,10.1736841201782
32.90737577,2.10747861862183,-0.355932354927063,11.748161315918
32.926933114,1.08574330806732,-0.29132616519928,13.4925289154053
32.946489677,1.73180544376373,0.385842651128769,14.5692987442017
32.966047072,0.91346001625061,-0.705284476280212,12.9589290618896
32.985605302,-1.84546446800232,-1.49970161914825,12.6454696655273
33.005162645,-2.95573425292969,-1.98544454574585,15.1555404663086
33.024719208,-1.15393877029419,-1.2891331911087,16.5409851074219
33.044276604,-1.16829562187195,-0.202791720628738,14.0883417129517
33.063834833,-3.03469729423523,0.598803877830505,11.0039930343628
33.083392177,-3.34576416015625,0.668195724487305,10.8245315551758
33.102948739,-1.89571368694305,-0.257826626300812,12.2937250137329
33.122506135,-1.23529469966888,-0.123828575015068,12.1908330917358
33.142064364,-1.64207458496094,0.467198610305786,9.74776077270508
33.161621708,-1.70907354354858,0.754337310791016,8.29053211212158
33.18117827,-1.50089800357819,0.644267499446869,7.86221694946289
33.200735666,-1.55593287944794,0.610767960548401,7.82393169403076
33.220293895,-2.05124711990356,0.852443039417267,8.11346340179443
33.239851239,-2.37667107582092,1.08693969249725,8.58724212646484
33.259407802,-2.06321144104004,1.00319087505341,8.74038314819336
33.278965197,-1.60139656066895,0.74237322807312,8.53460025787354
33.298523427,-1.14915311336517,0.625124931335449,8.34796047210693
33.31808077,-0.976869821548462,0.608375132083893,8.52742195129395
33.337637385,-0.876371264457703,0.586839735507965,9.04427146911621
33.357194781,-0.759122967720032,0.608375132083893,9.39840888977051
33.37675301,-0.917049288749695,0.818943560123444,9.50369358062744
33.396310354,-0.687338292598724,1.18504536151886,9.08016395568848
33.415866916,-0.342771857976913,1.52004063129425,8.35992431640625
33.435424312,0.123828575015068,1.74975156784058,7.981858253479
33.454982541,0.712462961673737,2.01056933403015,7.91007328033447
33.474539885,0.906281590461731,2.06321144104004,8.18524837493897
33.494096499,0.714855790138245,1.6564314365387,8.74756145477295
33.513653895,0.157328084111214,1.04626166820526,9.64965534210205
33.533212124,-0.268594354391098,0.491126835346222,10.3148603439331
33.552769468,-0.208773776888847,0.168095797300339,9.85543823242188
33.572326083,0.0975075215101242,0.208773776888847,8.34078121185303
33.591883479,0.0520438924431801,0.610767960548401,7.73300457000732
33.611441708,-0.108275227248669,1.48654103279114,8.54177856445313
33.630999052,-0.440877586603165,1.22811627388,9.05384254455566
33.650555614,-0.739980399608612,0.962512910366058,8.46042251586914
33.67011301,-1.62293195724487,1.29272246360779,8.78345394134522
33.689671291,-1.22093772888184,1.80478644371033,11.7050905227661
33.709228635,-1.09890377521515,0.778265535831451,12.2434749603271
33.728785197,-1.40997076034546,0.26620152592659,10.9346008300781
33.748342593,0.198006078600883,1.03429758548737,10.618748664856
33.767900874,3.36131763458252,1.06540429592133,10.3818588256836
33.787458166,3.52402949333191,0.852443039417267,10.5613212585449
33.807014781,1.1742776632309,0.907477974891663,10.8101749420166
33.826572177,-0.909870803356171,0.656231582164764,11.8773736953735
33.846130406,-1.34057891368866,-0.382253408432007,14.3180522918701
33.865687749,0.00658026244491339,-1.59302163124084,14.6386909484863
33.885244364,0.755533754825592,-2.35393929481506,13.7126684188843
33.90480176,0.657428026199341,-1.55712938308716,12.5090789794922
33.924359989,0.262612283229828,-0.0783649384975433,10.6283197402954
33.943917333,0.293718993663788,0.926620543003082,9.0514497756958
33.963473947,0.719641387462616,1.182652592659,7.73300457000732
33.983031343,0.69571316242218,1.24486601352692,7.2903323173523
34.002589624,0.288933336734772,1.34536457061768,7.52482891082764
34.022146968,-0.122632160782814,1.23768746852875,7.84068155288696
34.041703531,-0.431306272745132,0.976869821548462,8.07757091522217
34.061260927,-0.433699101209641,0.828514814376831,8.15174865722656
34.080819208,-0.170488610863686,1.29990088939667,7.72343349456787
34.100376552,0.035294134169817,1.89092814922333,7.09412097930908
34.119933114,-0.462412983179092,1.76171565055847,7.22333335876465
34.13949051,-1.06301140785217,1.09172534942627,8.67099094390869
34.159048791,-0.292522579431534,0.826122045516968,9.22373294830322
34.178606135,0.78903329372406,1.01754784584045,8.25703239440918
34.198162697,0.456430912017822,1.2520444393158,7.01515769958496
34.217720093,0.150149613618851,1.83589315414429,6.70887660980225
34.237278374,0.588036179542542,1.96510565280914,8.06799983978272
34.256835718,-0.0149551415815949,1.95074868202209,10.6737833023071
34.276392281,-1.63250327110291,1.96271276473999,13.375280380249
34.295949729,-1.71146643161774,3.08973217010498,13.8777732849121
34.315507958,-2.54416871070862,1.95074868202209,12.327223777771
34.335065302,-2.6207389831543,-0.901495933532715,12.8751802444458
34.354621916,-1.40997076034546,-2.44008088111877,16.0097789764404
34.374179312,0.150149613618851,-1.42313122749329,15.8781728744507
34.393737541,-0.395413935184479,0.579661309719086,13.3465662002563
34.413294885,-1.28554391860962,0.826122045516968,13.1192483901978
34.432851499,-0.299701035022736,0.491126835346222,13.3704948425293
34.452408895,1.03310120105743,0.531804859638214,11.4705934524536
34.471967124,0.934995472431183,1.21615207195282,9.36969566345215
34.491524468,0.2410768866539,1.97228407859802,8.01057243347168
34.511081083,-0.177667081356049,1.89571368694305,7.18504810333252
34.530638479,-0.251844584941864,1.19700956344605,7.35015296936035
34.550196708,-0.223130717873573,0.759122967720032,7.68275547027588
34.569754052,-0.062811590731144,0.586839735507965,7.40758085250855
34.589310666,-0.182452723383904,0.60598236322403,7.40997362136841
34.608868062,-0.830907642841339,0.503090977668762,7.98664379119873
34.628426291,-1.35493576526642,0.536590456962585,8.51067161560059
34.647983635,-1.31665062904358,1.0151549577713,8.73320484161377
34.667540249,-0.591625392436981,1.6564314365387,7.88614511489868
34.687097645,-0.170488610863686,1.78803670406342,7.19461965560913
34.706655874,-0.598803877830505,1.26161575317383,7.90528774261475
34.726213218,-1.03669035434723,0.74237322807312,9.2380895614624
34.745769833,-0.883549749851227,0.948155999183655,9.59222793579102
34.765327229,-0.634696185588837,1.21615207195282,9.04666423797607
34.784885458,-1.19222390651703,0.471984267234802,9.6400842666626
34.804442802,-1.62771761417389,0.00299102836288512,11.1140632629395
34.823999416,-1.31186497211456,0.352343142032623,11.4083805084229
34.843556812,-0.0699900612235069,1.38364970684052,9.95593643188477
34.863115041,0.0879362300038338,1.31665062904358,9.9535436630249
34.882672385,-0.646660327911377,1.05104732513428,11.6500549316406
34.902228999,-1.03669035434723,0.558125853538513,13.0067853927612
34.921786395,-0.565304338932037,0.292522579431534,12.7866458892822
34.941344624,0.229112774133682,0.373878538608551,11.9994077682495
34.960901968,0.647856712341309,0.565304338932037,11.9611225128174
34.980458531,0.829711258411408,1.38364970684052,11.8893375396729
35.000015927,0.580857694149017,2.14935302734375,11.1475620269775
35.019574208,-0.108275227248669,1.79282236099243,11.0255289077759
35.039131552,-0.0532403029501438,0.594018220901489,12.1310129165649
35.058688114,0.707677304744721,-0.394217520952225,13.1982116699219
35.07824551,1.2891331911087,-0.46839502453804,12.8392877578735
35.097803739,0.973280608654022,0.359521597623825,10.9369945526123
35.117361083,0.389431893825531,1.01754784584045,8.89591598510742
35.136917697,0.243469700217247,1.28554391860962,7.42433023452759
35.156475093,0.355932354927063,1.30468654632568,6.94098043441773
35.176033322,0.444466799497604,1.35732865333557,7.1730842590332
35.195590666,0.248255342245102,1.29990088939667,7.27597522735596
35.215147281,-0.108275227248669,1.14676022529602,7.19461965560913
35.234704677,-0.436091929674149,1.01994061470032,7.55354309082031
35.254262906,-0.469591438770294,1.01754784584045,8.0560359954834
35.273820249,-0.158524498343468,1.09411811828613,8.28813934326172
35.293376864,-0.189631193876266,1.02233350276947,8.22592639923096
35.312934208,-0.486341208219528,0.795015335083008,8.52263641357422
35.332492489,-0.44327038526535,0.787836849689484,9.25483989715576
35.352049833,0.16211374104023,1.39322102069855,9.19262599945068
35.371606395,0.518644332885742,1.7832510471344,8.38385200500488
35.391163791,-0.0771685317158699,1.57028985023499,9.10169887542725
35.41072202,-0.862014353275299,0.795015335083008,10.2909317016602
35.430279364,-0.577268481254578,1.05822587013245,10.0923280715942
35.449835979,0.355932354927063,2.30249357223511,8.24267578125
35.469393374,0.420538574457169,3.23090887069702,7.22094058990479
35.488951604,-0.553340256214142,3.31465744972229,8.73559761047363
35.508508947,-1.46261286735535,1.48893392086029,11.3342027664185
35.528065562,-1.63011038303375,-0.875174880027771,13.9950218200684
35.547622958,-0.771087110042572,-1.94237375259399,15.148362159729
35.567181187,-0.278165638446808,-0.59042900800705,13.7485609054565
35.586738531,-0.625124931335449,0.828514814376831,11.6739835739136
35.606295145,-1.50089800357819,0.771087110042572,11.2121686935425
35.625852541,-2.01296210289001,-0.355932354927063,12.6095771789551
