Time (s),Acceleration x (m/s^2),Acceleration y (m/s^2),Acceleration z (m/s^2)
0.030502205,-0.859621524810791,1.22333061695099,9.80758190155029
0.050060382,-1.05583298206329,1.29272246360779,9.86500930786133
0.069617882,-1.07497560977936,1.30707931518555,9.75733280181885
0.089176112,-1.12522482872009,1.62053918838501,9.61376285552979
0.108735226,-1.31904351711273,2.13499593734741,9.50608634948731
0.128293455,-1.22333061695099,2.26420831680298,9.67597675323486
0.147850955,-0.802193820476532,1.83828604221344,9.98704338073731
0.167409184,-0.481555551290512,1.27597272396088,10.2957172393799
0.186968299,-0.337986201047897,0.986441135406494,10.3124675750732
0.206526528,-0.49351966381073,0.969691395759583,10.0348997116089
0.226084028,-0.895513892173767,1.16590285301209,9.73101139068604
0.245642257,-1.28793680667877,1.53918313980103,9.47976493835449
0.265201372,-1.42432773113251,1.75932288169861,9.58504962921143
0.284759601,-1.27836549282074,1.75932288169861,9.68794059753418
0.304317049,-0.7926225066185,1.62293195724487,10.0253286361694
0.32387533,-0.203988134860992,1.25443732738495,10.6737833023071
0.343434445,-0.156131684780121,0.988833963871002,10.4129657745361
0.362992674,-0.306879490613937,0.969691395759583,10.2143611907959
0.382550122,-0.194416835904121,0.926620543003082,10.2191476821899
0.402108403,-0.125024989247322,1.06540429592133,10.0253286361694
0.421667518,-0.239880472421646,1.16111719608307,9.79322528839111
0.441225747,-0.0197407864034176,0.905085146427155,9.9942216873169
0.460783247,-0.337986201047897,0.811765074729919,10.0085792541504
0.480341476,-0.448056042194366,1.03429758548737,10.1234340667725
0.499900591,-0.479162722826004,1.39082813262939,9.64726257324219
0.51945882,0.293718993663788,1.33340036869049,9.50608634948731
0.53901632,0.401396006345749,1.29032957553864,9.57547760009766
0.558574601,0.434895515441895,1.11565351486206,9.5802640914917
0.578133716,0.353539556264877,0.878764092922211,9.6400842666626
0.597691945,0.26979073882103,0.510269403457642,10.2622184753418
0.617249393,0.422931402921677,0.359521597623825,10.7216396331787
0.636807674,0.688534736633301,0.653838813304901,10.2263259887695
0.656366789,0.279362052679062,1.15633153915405,9.6999044418335
0.675925018,-0.431306272745132,1.53679037094116,9.81715297698975
0.695482518,0.334396958351135,1.40757787227631,9.54915714263916
0.715040799,1.69112741947174,0.940977513790131,9.1112699508667
0.734599914,1.7222341299057,1.16829562187195,9.06102085113525
0.754158143,1.11685001850128,1.67796683311462,8.84566688537598
0.773715591,0.623928487300873,2.00817632675171,8.79541778564453
0.793273872,0.406181633472443,1.96031999588013,9.15194797515869
0.812833039,0.334396958351135,1.78803670406342,9.79801082611084
0.832391268,0.0448654256761074,1.90289223194122,10.1665048599243
0.851948716,-0.577268481254578,2.36470699310303,9.89133071899414
0.871506997,-0.658624410629273,2.63031029701233,9.66640567779541
0.891066164,0.0999003425240517,2.37427830696106,9.68315505981445
0.910624341,0.530608415603638,2.25942277908325,9.673583984375
0.930181841,0.363110840320587,2.48913383483887,9.21176910400391
0.949740122,0.382253408432007,2.51306200027466,8.8504524230957
0.969299237,0.741176843643189,2.24985146522522,9.25005435943604
0.988857466,0.91346001625061,2.07517552375793,9.75733280181885
1.008414966,0.755533754825592,1.94357013702393,9.68554782867432
1.027973247,0.2410768866539,1.97467684745789,9.68554782867432
1.047532414,-0.254237413406372,1.69232380390167,10.5421781539917
1.067090643,-0.0412761904299259,1.40518510341644,11.3461666107178
1.086648091,0.363110840320587,1.45064878463745,11.3054885864258
1.106206372,0.475573509931564,1.63489603996277,11.0709924697876
1.125765539,0.224327117204666,1.63250327110291,11.3126668930054
1.145323768,0.26021945476532,1.38364970684052,11.6907329559326
1.164881268,0.470787853002548,1.2975081205368,11.5639133453369
1.184439549,0.609571576118469,1.54875445365906,11.0757780075073
1.203998664,0.470787853002548,1.39082813262939,10.5230360031128
1.223556893,0.2410768866539,0.699302434921265,10.6546411514282
1.243114393,0.205184549093246,0.00538385100662708,11.3102741241455
1.262672674,0.384646236896515,-0.473180681467056,11.2121686935425
1.282231841,0.0209371987730265,-0.418145745992661,10.2789678573608
1.30179007,-0.457627326250076,0.065204419195652,9.24766159057617
1.32134757,-0.507876634597778,0.596411049365997,8.27856826782227
1.340905851,-0.400199592113495,0.909870803356171,7.6947193145752
1.360464966,-0.538983285427094,0.993619620800018,7.71864748001099
1.380023195,-0.962512910366058,0.799800992012024,8.32163906097412
1.399580695,-1.59661090373993,0.440877586603165,9.5467643737793
1.419138976,-1.32861483097076,0.0125623187050223,10.9106731414795
1.438698143,-0.440877586603165,-0.0831505879759789,11.0925273895264
1.458256372,0.193220421671867,0.247058942914009,10.154541015625
1.477813872,0.640678286552429,0.601196706295013,8.93180847167969
1.497372153,0.564107954502106,0.859621524810791,8.46760082244873
1.51693132,0.343968242406845,0.972084224224091,8.64706325531006
1.536489549,-0.0963111147284508,1.12522482872009,8.93180847167969
1.556047049,-0.385842651128769,1.33340036869049,9.16391277313232
1.57560533,-0.546161770820618,1.62293195724487,9.3122673034668
1.595164497,-1.05104732513428,1.87417829036713,9.32183837890625
1.614722726,-1.65164577960968,2.04406881332397,9.34337425231934
1.634280226,-1.78085827827454,2.15174579620361,9.39362335205078
1.653838507,-1.15154588222504,2.11346054077148,9.45823001861572
1.673397674,-0.720837831497192,2.33360028266907,9.24766159057617
1.692955903,-0.591625392436981,2.60159635543823,8.99880790710449
1.712513403,-0.321236431598663,2.62313175201416,9.20459079742432
1.732071684,-0.00538385100662708,2.28095817565918,9.75015449523926
1.751630799,0.00179461692459881,2.00099802017212,10.3938236236572
1.77118908,0.107078813016415,1.55114722251892,10.8484592437744
1.79074658,-0.172881439328194,1.34536457061768,11.6763763427734
1.810304862,-0.416949331760407,1.2975081205368,12.9589290618896
1.829864028,0.30089744925499,0.814157903194428,13.6719903945923
1.849422257,0.990030348300934,0.658624410629273,13.7796678543091
1.868979757,1.33459687232971,1.43150615692139,12.4444723129272
1.888538039,1.38484609127045,1.57746827602386,10.7288188934326
1.908097205,0.844068169593811,0.337986201047897,10.8245315551758
1.927655434,0.0448654256761074,-1.17188489437103,12.3631162643433
1.947212934,-0.227916359901428,-1.77248334884644,12.8656091690063
1.966771216,-0.397806763648987,-1.27477622032166,11.4418792724609
1.986330382,-0.407378047704697,-0.396610349416733,9.43430137634277
2.005888612,0.190827608108521,0.529412031173706,7.40518808364868
2.025446112,0.626321315765381,1.39082813262939,6.16092014312744
2.045004393,0.384646236896515,1.67318117618561,5.93360185623169
2.064563559,0.00658026244491339,1.19222390651703,6.62752056121826
2.084121789,-0.0364905446767807,0.562911510467529,7.96750116348267
2.103679289,0.16211374104023,0.223130717873573,9.32183837890625
2.12323757,0.248255342245102,0.304486691951752,10.1258268356323
2.142796737,0.00179461692459881,0.641874670982361,10.178469657898
2.162354966,-0.065204419195652,0.99122679233551,10.056435585022
2.181912466,0.324825674295425,1.01994061470032,9.7334041595459
2.201470799,0.571286380290985,1.0319048166275,9.51087188720703
2.221029914,0.480359137058258,1.11804640293121,9.31466007232666
2.240588143,0.332004129886627,1.20658087730408,8.94616603851318
2.260145643,0.415752947330475,1.23529469966888,8.65902709960938
2.279703976,0.942173898220062,1.52004063129425,8.34078121185303
2.299263091,1.42552411556244,1.89092814922333,8.52742195129395
2.318821372,1.2197413444519,1.62293195724487,9.08734226226807
2.338378872,0.537786900997162,1.13958179950714,10.0899353027344
2.357937153,0.188434779644012,1.15393877029419,11.1188488006592
2.377496268,0.899103105068207,1.52004063129425,10.3100748062134
2.397054549,1.3585250377655,2.12063908576965,9.10887718200684
2.416612049,0.889531791210175,2.10628223419189,9.08734226226807
2.43617033,0.209970191121101,1.21375930309296,10.4584293365479
2.455729497,-0.187238365411758,0.775872766971588,11.7744817733765
2.475287726,0.2410768866539,1.28793680667877,12.0544424057007
2.494845226,0.949352383613586,2.24985146522522,11.4849500656128
2.514403507,0.844068169593811,2.7355945110321,10.5254287719727
2.533962674,0.0687936544418335,2.10628223419189,9.81236743927002
2.553520903,-0.637089014053345,0.467198610305786,11.0350999832153
2.573078403,-0.818943560123444,-0.753140926361084,13.0235357284546
2.592636684,-0.806979417800903,-1.11445713043213,12.9661073684692
2.612195851,-1.24965167045593,-0.729212701320648,11.0159568786621
2.63175408,-1.45064878463745,-0.0855434089899063,9.70468997955322
2.65131158,-1.41475641727448,0.263808697462082,8.7978105545044
2.670869862,-0.71126651763916,-0.0831505879759789,8.73081207275391
2.690429028,0.164506554603577,-0.401396006345749,9.03709316253662
2.709987257,-0.562911510467529,0.110668048262596,9.7334041595459
2.729544757,-1.2975081205368,0.718445003032684,9.24766159057617
2.749103039,-0.854835867881775,0.584446907043457,8.44128036499023
2.768662205,-0.97926265001297,2.03449749946594,8.9916296005249
2.788220434,-0.158524498343468,1.18983101844788,8.022536277771
2.807777934,0.174077853560448,1.19940233230591,7.68754100799561
2.827336216,-0.361914426088333,1.61814630031586,7.97467947006226
2.846895382,-0.393021106719971,1.20897364616394,8.20199775695801
2.866453612,-0.0460618361830711,0.684945464134216,8.62792015075684
2.886011112,-0.232702001929283,1.15154588222504,8.90788078308106
2.905569393,-0.689731121063232,1.98185539245605,8.53220748901367
2.925128559,-1.07976126670837,2.43409872055054,8.1493558883667
2.944686789,-1.00079810619354,2.61595344543457,8.37428092956543
2.964244289,-0.579661309719086,2.60159635543823,8.7978105545044
2.98380257,-0.120239339768887,2.27138686180115,8.98205757141113
3.003361737,0.011365907266736,2.93659162521362,8.92941570281982
3.022919966,-0.579661309719086,3.90807747840881,7.38843822479248
3.042477466,0.320040017366409,3.58026099205017,9.81476020812988
3.062035747,1.15034949779511,1.15872430801392,12.6837549209595
3.081594914,2.29411864280701,-1.10249304771423,15.2751817703247
3.101153143,2.8779673576355,-1.68155610561371,15.2273254394531
3.120710643,2.18404889106751,-0.824925601482391,14.3324098587036
3.140268924,0.856032311916351,-0.265005111694336,13.8586301803589
3.159828091,0.0735792964696884,-0.188434779644012,13.1288194656372
3.17938632,0.265005111694336,-0.841675341129303,12.4516506195068
3.19894382,1.03788685798645,-1.6528422832489,11.9491577148438
3.218502101,1.65523505210876,-1.74855518341064,11.0303144454956
3.238061216,1.92083835601807,-1.51645135879517,9.68076229095459
3.257619497,1.77248334884644,-0.571286380290985,8.25942516326904
3.277176997,1.61216425895691,0.196809664368629,7.35493850708008
3.296735278,1.53559398651123,0.125024989247322,7.58943510055542
3.316294393,1.28434753417969,-0.245862528681755,8.87198829650879
3.335852622,1.04506528377533,-0.573679208755493,10.0660066604614
3.355410122,0.772283494472504,-0.463609397411346,10.4177513122559
3.374968455,0.671784937381744,-0.0544367134571075,10.0707921981812
3.39452757,0.674177765846252,0.393021106719971,9.39840888977051
3.414085799,0.506680190563202,0.857228696346283,8.69491958618164
3.433643299,0.343968242406845,1.24486601352692,8.12782001495361
3.45320158,0.437288343906403,1.47696971893311,8.01775074005127
3.472760747,0.628714144229889,1.43150615692139,8.18524837493897
3.492318976,0.683749079704285,1.40997076034546,8.1493558883667
3.511876476,0.48993045091629,1.52961182594299,7.85743141174316
3.531434757,0.365503668785095,1.82392907142639,7.88135957717896
3.550993924,0.666999340057373,1.9100706577301,8.06560707092285
3.570552153,1.01635146141052,2.15892434120178,8.39342403411865
3.590109653,0.99481600522995,2.314457654953,9.0323076248169
3.609667934,0.542572557926178,2.13260316848755,10.0707921981812
3.629227101,-0.218345060944557,1.95074868202209,11.2049903869629
3.64878533,-0.871585667133331,2.02971172332764,12.2745819091797
3.66834283,-1.00319087505341,2.32402896881104,12.2386894226074
3.687901112,-0.510269403457642,2.34077882766724,10.7216396331787
3.707460226,0.547358155250549,1.99860513210297,9.79083251953125
3.727018455,1.41356003284454,1.54875445365906,10.1521482467651
3.746575955,1.66241347789764,1.66121709346771,10.7886390686035
3.766134289,1.36809635162354,2.07038974761963,10.7048902511597
3.785693403,1.32741832733154,2.13499593734741,10.0660066604614
3.805251632,0.858425140380859,1.3094722032547,10.4057874679565
3.824809132,0.296111792325974,-0.119042925536633,11.8749809265137
3.844367414,0.140578329563141,-1.13599252700806,13.1910333633423
3.86392658,-0.213559418916702,-0.877567708492279,13.2867460250855
3.883484809,-0.924227774143219,0.239880472421646,11.3581304550171
3.903042309,-1.17786693572998,0.924227774143219,8.77388286590576
3.922600591,-0.82372921705246,1.3668999671936,7.62054204940796
3.942159757,-0.469591438770294,1.07018995285034,7.66600561141968
3.961717987,-0.361914426088333,0.510269403457642,8.2091760635376
3.981275487,-0.491126835346222,0.249451756477356,8.96291542053223
4.000833768,-0.51266223192215,0.424127817153931,9.38165950775147
4.020392882,-0.419342160224915,0.706480860710144,8.99641513824463
4.039951112,-0.235094830393791,1.01276218891144,8.2091760635376
4.059508612,-0.000598205660935491,1.15633153915405,7.63250589370728
4.079066945,0.207577362656593,1.53200471401215,7.50329351425171
4.098626059,-0.0556331276893616,1.91724920272827,7.71386194229126
4.118184289,-0.467198610305786,2.0201404094696,8.0560359954834
4.137741789,-0.687338292598724,1.98424816131592,8.45324420928955
4.15730007,-0.74237322807312,1.94835579395294,8.84327411651611
4.176859237,-0.615553617477417,1.89332091808319,8.95573711395264
4.196417466,-0.57487565279007,1.77607262134552,9.09691333770752
4.215974966,-0.570089995861054,1.81914341449738,9.61854839324951
4.235533247,-0.538983285427094,1.99621224403381,9.9679012298584
4.255092362,-0.687338292598724,2.22113752365112,10.2502536773682
4.274650643,-0.802193820476532,2.43649172782898,10.7359972000122
4.294208091,-0.656231582164764,2.6207389831543,11.0039930343628
4.313766424,-0.232702001929283,2.42692041397095,10.7288188934326
4.333325539,-0.366700083017349,1.70668077468872,10.9848508834839
4.352883768,-0.455234497785568,0.754337310791016,12.0472640991211
4.372441268,0.29132616519928,0.433699101209641,13.0426778793335
4.391999549,0.865603566169739,0.936191856861115,12.8368949890137
4.411558716,0.712462961673737,1.75214433670044,11.6189489364624
4.431116945,0.324825674295425,1.87896394729614,10.5421781539917
4.450674445,-0.0795613527297974,0.881156921386719,9.96311569213867
4.470232726,0.26979073882103,-0.688534736633301,11.1906337738037
4.489791841,0.846460998058319,-1.33698964118958,13.1671047210693
4.509350122,1.25324082374573,-1.0354939699173,11.944372177124
4.52890757,1.99501585960388,-0.533001244068146,8.36470985412598
4.548465903,2.83011102676392,-0.439681172370911,6.61794900894165
4.568025018,3.22492671012878,-0.894317448139191,7.07976388931274
4.587583247,2.6291139125824,-1.36331069469452,8.69013404846191
4.607140747,1.26999056339264,-1.27477622032166,10.3005037307739
4.626699028,0.152542442083359,-0.750748097896576,10.6737833023071
4.646258195,-0.00538385100662708,-0.119042925536633,10.0851488113403
4.665816424,0.437288343906403,0.345164656639099,9.3792667388916
4.685373924,0.860817968845367,0.699302434921265,8.7978105545044
4.704932205,0.803390204906464,0.897906720638275,8.55374240875244
4.72449132,0.724427044391632,0.876371264457703,9.09691333770752
4.744049549,0.571286380290985,1.01036942005157,9.3122673034668
4.763607049,0.552143812179565,1.09890377521515,8.87438106536865
4.783165382,0.769890666007996,1.03429758548737,8.72602558135986
4.802724497,1.07377910614014,1.04147601127625,8.94855880737305
4.822282726,1.19820594787598,1.18743824958801,8.99641513824463
4.841840226,0.970887780189514,1.41714918613434,8.95334434509277
4.861398507,0.664606511592865,1.50329077243805,9.31944561004639
4.880957622,0.391824722290039,1.54875445365906,10.3100748062134
4.900515903,0.564107954502106,1.65403866767883,10.6833553314209
4.920073403,0.676570594310761,1.86221420764923,10.6737833023071
4.939631684,0.578464865684509,1.97467684745789,10.7742824554443
4.959190799,-0.21595224738121,1.8526428937912,11.602198600769
4.978749028,-1.23290181159973,1.63250327110291,12.9541435241699
4.998306528,-1.10368943214417,1.58464682102203,12.588041305542
5.017864809,-0.608375132083893,1.90049934387207,11.0327072143555
5.037423976,-0.125024989247322,1.86221420764923,10.1856479644775
5.056982205,0.126221388578415,1.38364970684052,10.4488582611084
5.076539705,-0.0436690114438534,0.0939182862639427,11.4107732772827
5.096097987,-0.263808697462082,-0.951745212078095,12.2410821914673
5.115657101,-0.182452723383904,-0.774676322937012,11.9419794082642
5.13521533,0.008973085321486,0.0125623187050223,10.5661067962646
5.15477283,0.212363004684448,0.696909606456757,9.32183837890625
5.174331112,0.523429930210114,0.952941596508026,8.63988399505615
5.193890278,0.707677304744721,0.806979417800903,8.32881736755371
5.213448507,0.674177765846252,0.615553617477417,8.42213726043701
5.233006007,0.525822758674622,0.460020154714584,9.17587661743164
5.252564289,0.26979073882103,0.4648058116436,9.98225784301758
5.272123403,0.0999003425240517,0.598803877830505,10.1808624267578
5.291681632,0.257826626300812,0.644267499446869,9.63290596008301
5.311239132,0.377467781305313,0.756730139255524,9.20698356628418
5.330797414,0.195613250136375,1.02711915969849,8.73559761047363
5.35035658,-0.062811590731144,1.34297168254852,8.28574657440186
5.369914809,-0.261415868997574,1.46021997928619,8.12064170837402
5.389472309,-0.304486691951752,1.28554391860962,8.35513877868652
5.409030591,-0.299701035022736,1.141974568367,8.4436731338501
5.428589705,-0.194416835904121,1.23050904273987,8.23071193695068
5.448147934,-0.208773776888847,1.52243340015411,7.88135957717896
5.467705434,-0.416949331760407,1.96271276473999,7.66122007369995
5.487263716,-0.613160789012909,2.35035014152527,7.81196784973145
5.506822882,-0.651445984840393,2.4699912071228,8.29531764984131
5.526381112,-0.299701035022736,2.62313175201416,9.17348384857178
5.545938612,0.0855434089899063,3.10887479782105,9.53719329833984
5.565496893,-0.52462637424469,3.15433835983276,9.71665477752686
5.585056007,-1.3094722032547,2.47238397598267,11.6644124984741
5.604614237,-1.141974568367,1.09172534942627,13.8370952606201
5.624171737,-0.364307254552841,0.189631193876266,14.6315126419067
5.643730018,0.293718993663788,0.208773776888847,13.6911325454712
5.663289132,-0.0364905446767807,0.835693299770355,13.0450706481934
5.682847362,-0.373878538608551,0.763908624649048,13.1694974899292
5.702404862,-0.261415868997574,-0.142971158027649,13.2197465896606
5.721963143,0.418145745992661,-0.69571316242218,12.188440322876
5.741522309,0.899103105068207,-0.741176843643189,10.5182504653931
5.761080539,0.722034215927124,-0.0616151839494705,8.82652473449707
5.780638039,0.308075904846191,0.471984267234802,7.55354309082031
5.80019632,0.355932354927063,0.531804859638214,7.36211729049683
5.819755434,0.360718011856079,0.175274252891541,7.76411104202271
5.839313664,0.154935270547867,-0.10229317098856,8.48195838928223
5.858871164,0.0616151839494705,-0.0687936544418335,8.8648099899292
5.878429445,-0.0460618361830711,0.354735970497131,8.79063224792481
5.897988559,0.0999003425240517,0.878764092922211,8.70927619934082
5.917546789,0.279362052679062,1.21375930309296,8.54656410217285
5.937104289,0.434895515441895,1.31904351711273,8.66620540618897
5.95666257,0.568893611431122,1.15633153915405,9.00837898254395
5.976221684,0.564107954502106,1.06540429592133,9.46301555633545
5.995779914,0.317647218704224,1.48654103279114,9.50847911834717
6.015337414,0.0616151839494705,1.88614249229431,9.09930610656738
6.034895695,-0.0771685317158699,1.94117736816406,9.10648441314697
6.054454809,-0.110668048262596,1.67318117618561,9.48215770721436
6.074013039,-0.251844584941864,1.39800667762756,9.88415241241455
6.093570539,-0.416949331760407,1.32622194290161,10.2622184753418
6.11312882,-0.2757728099823,1.56550419330597,10.2622184753418
6.132687934,-0.0484546571969986,1.91246354579926,10.1856479644775
6.152246164,0.343968242406845,2.0608184337616,10.3124675750732
6.171803664,0.573679208755493,1.92921328544617,10.4584293365479
6.191361945,0.50907301902771,2.0488543510437,10.6019992828369
6.210921059,0.884746193885803,2.31924343109131,10.1688976287842
6.230479289,1.3298112154007,2.36231422424316,9.52283573150635
6.250036789,0.956530869007111,1.95792710781097,9.86740207672119
6.26959507,-0.0987039357423782,1.18504536151886,11.7816600799561
6.289154184,-0.57487565279007,0.354735970497131,13.293924331665
6.308712414,-0.395413935184479,-0.394217520952225,12.8967161178589
6.328269862,-0.826122045516968,-0.659820854663849,11.7433757781982
6.347828143,-1.24486601352692,-0.0257228426635265,10.6570339202881
6.367387309,-1.00319087505341,0.948155999183655,9.49412250518799
6.386945487,-0.897906720638275,1.55593287944794,8.84566688537598
6.406502987,-1.21615207195282,1.58943247795105,9.40797996520996
6.426061268,-1.28554391860962,0.895513892173767,10.357931137085
6.445620382,-0.940977513790131,0.26620152592659,10.9369945526123
6.465178612,-0.270987153053284,0.192024022340775,10.4177513122559
6.484736112,0.255433827638626,0.658624410629273,9.24526882171631
6.504294341,0.494716078042984,1.26640141010284,8.21874713897705
6.523853507,0.554536640644074,1.67796683311462,7.66361284255981
6.543411684,0.384646236896515,1.83589315414429,7.59900665283203
6.562969184,0.183649137616158,1.93399894237518,8.03689289093018
6.582527466,-0.000598205660935491,1.90049934387207,8.503493309021
6.60208658,-0.194416835904121,1.84307169914246,8.80977439880371
6.621644809,-0.400199592113495,1.75692999362946,8.99402236938477
6.641202257,-0.455234497785568,1.74735867977142,9.30269622802734
6.660760539,-0.261415868997574,1.59900367259979,9.54915714263916
6.680319653,-0.287736922502518,1.53918313980103,9.84347438812256
6.699877882,-0.663410067558289,1.71625208854675,10.211968421936
6.71943533,-0.613160789012909,1.96510565280914,10.5924272537231
6.738993612,-0.263808697462082,2.21874475479126,10.154541015625
6.758552726,-0.129810631275177,2.5800609588623,9.29312515258789
6.778110955,-0.165702968835831,2.7643084526062,8.90309524536133
6.797668455,-0.641874670982361,2.75712990760803,9.51805019378662
6.817226684,-1.08933246135712,2.52981185913086,10.3770732879639
6.836785799,-1.29032957553864,2.1876380443573,11.0781707763672
6.856344028,-1.11086785793304,1.73778748512268,11.6644124984741
6.875901528,-0.239880472421646,1.42432773113251,12.0616207122803
6.895459757,0.949352383613586,1.86460709571838,11.7553396224976
6.915018872,1.53559398651123,2.86241412162781,10.578070640564
6.934577101,1.1910275220871,3.29312205314636,9.88893795013428
6.954134601,0.860817968845367,2.20678067207336,10.0947208404541
6.97369283,1.14317107200623,0.716052174568176,10.9178514480591
6.993251945,1.52841544151306,0.0795613527297974,10.982458114624
7.012810174,1.51645135879517,0.531804859638214,9.80997467041016
7.032367622,1.24845516681671,1.02951192855835,8.3359956741333
7.051925903,0.91346001625061,0.988833963871002,7.91725206375122
7.071485018,0.549750983715057,0.416949331760407,8.92223739624023
7.091043247,0.298504620790482,-0.135792687535286,10.0803632736206
7.110600695,0.190827608108521,-0.0472582466900349,10.3890380859375
7.130158976,0.0137587301433086,0.49351966381073,9.55633544921875
7.149718091,-0.0556331276893616,1.15393877029419,8.80498886108398
7.169276268,-0.0388833694159985,1.52721905708313,8.4101734161377
7.188833768,0.0233300216495991,1.78803670406342,8.25703239440918
7.208391997,0.0233300216495991,2.02253341674805,8.11346340179443
7.227951112,0.133399859070778,2.20199513435364,8.2091760635376
7.247509341,0.583250522613525,1.90767788887024,8.55613517761231
7.267066789,0.748355269432068,1.65164577960968,8.7236328125
7.28662507,0.805783033370972,1.7425731420517,8.59442043304443
7.306184184,0.973280608654022,2.15413856506348,8.36470985412598
7.325742362,1.01395857334137,2.4699912071228,8.35753154754639
7.345299809,1.23649108409882,2.48434805870056,8.95095157623291
7.364858091,1.51166570186615,2.2331018447876,9.75015449523926
7.384417205,1.31545424461365,2.23788738250732,9.94157981872559
7.403975382,0.779461979866028,2.59681081771851,9.98465061187744
7.423532882,-0.385842651128769,3.10408926010132,10.3794660568237
7.443091112,-1.21375930309296,3.13519597053528,11.2504539489746
7.462650226,-0.455234497785568,2.1876380443573,12.06640625
7.482208455,0.824925601482391,1.21375930309296,12.8991088867188
7.501765903,0.829711258411408,1.3094722032547,13.2676029205322
7.521324132,-0.0077766734175384,2.10149645805359,12.6023988723755
7.540883247,-0.852443039417267,2.41017055511475,11.6333055496216
7.560441476,-1.22572338581085,1.40757787227631,11.1834545135498
7.579998924,-0.974476993083954,-0.26021945476532,11.9874429702759
7.599557153,-0.412163704633713,-0.937388241291046,12.2985105514526
7.619116268,-0.347557485103607,-0.310468733310699,10.7503538131714
7.638674497,-0.739980399608612,0.735194742679596,8.80498886108398
7.658231945,-0.883549749851227,1.34536457061768,7.94596576690674
7.677790174,-0.488734036684036,1.19700956344605,7.78325366973877
7.697349289,0.0185443758964539,0.71126651763916,7.94118022918701
7.716907518,0.123828575015068,0.419342160224915,8.48674392700195
7.736464966,-0.227916359901428,0.54376894235611,9.08734226226807
7.756023195,-0.613160789012909,0.976869821548462,9.13041305541992
7.775582309,-0.751944541931152,1.4362918138504,8.23789024353027
7.795140487,-0.728016316890717,1.76889419555664,7.52482891082764
7.814697987,-0.816550731658936,1.90289223194122,7.82871770858765
7.834256216,-0.716052174568176,1.7138592004776,8.37906646728516
7.85381533,-0.529412031173706,1.62053918838501,8.93898677825928
7.873373507,-0.50548380613327,1.78803670406342,9.07298564910889
7.892930955,-0.675374209880829,2.19242382049561,9.24526882171631
7.912489237,-1.08693969249725,2.42692041397095,9.53958606719971
7.932048351,-1.40039944648743,2.25942277908325,9.84586715698242
7.951606528,-1.86939263343811,2.0656042098999,10.2861461639404
7.971163976,-1.49850523471832,2.39342093467712,10.7623176574707
7.990722205,-0.644267499446869,2.7308087348938,10.5110712051392
8.01028132,-0.139381915330887,2.82891464233398,10.097113609314
8.029839497,0.157328084111214,2.41256332397461,10.757532119751
8.049396997,-0.189631193876266,1.73778748512268,12.3009033203125
8.068955226,-0.950548768043518,1.12761771678925,13.073784828186
8.088514341,-1.23290181159973,0.771087110042572,12.8153600692749
8.108072518,-0.625124931335449,1.45782721042633,12.2339038848877
8.127629966,-0.13698910176754,2.55613279342651,10.9896364212036
8.147188247,0.0233300216495991,2.69252371788025,9.98465061187744
8.166747309,0.0999003425240517,1.20418798923492,10.5661067962646
8.186305539,0.583250522613525,-0.339182615280151,11.805588722229
8.205862987,1.23888397216797,-0.844068169593811,11.6356983184814
8.225421216,1.30827581882477,0.153738856315613,9.45583724975586
8.24498033,1.04745817184448,1.28554391860962,7.23051166534424
8.264538507,1.03788685798645,1.89810657501221,6.23509740829468
8.284095955,1.09052896499634,1.20179522037506,6.98405122756958
8.303654184,0.671784937381744,0.244666114449501,9.02991485595703
8.323213299,0.12143574655056,-0.140578329563141,10.9441728591919
8.342771528,-0.488734036684036,0.22552353143692,11.4993076324463
8.362328976,-0.888335406780243,0.950548768043518,10.3818588256836
8.381887205,-0.811765074729919,1.58225393295288,8.91745185852051
8.401446268,-0.491126835346222,1.76889419555664,7.98903656005859
8.421004497,-0.0867398232221603,1.64925301074982,7.87657403945923
8.440561945,0.209970191121101,1.7138592004776,8.28335380554199
8.460120174,0.399003177881241,1.80478644371033,8.49392223358154
8.479679289,0.729212701320648,1.66600275039673,8.52502918243408
8.499237466,1.14556384086609,1.54396879673004,8.61356353759766
8.518794914,1.52362978458405,1.58225393295288,8.67099094390869
8.538353143,1.76769769191742,1.81914341449738,8.63509845733643
8.557912257,1.7222341299057,1.74735867977142,9.07537841796875
8.577470434,0.966102123260498,1.72343051433563,9.93200874328613
8.597027882,-0.141774743795395,2.12303185462952,10.5110712051392
8.616586112,-0.976869821548462,3.03948307037354,10.4656076431274
8.636145226,-0.809372246265411,3.64247417449951,9.673583984375
8.655703403,-0.306879490613937,3.79800772666931,9.06341361999512
8.675260851,-0.117846518754959,3.18305230140686,9.88654518127441
8.69481908,-0.029312077909708,2.33360028266907,11.8941230773926
8.714378195,0.224327117204666,2.03210473060608,13.0953197479248
8.733936372,0.255433827638626,1.8406788110733,12.1405839920044
8.75349382,-0.108275227248669,1.54875445365906,11.202597618103
8.773052049,-0.610767960548401,0.716052174568176,11.2528467178345
8.792611164,-1.28793680667877,-0.11186445504427,12.8847513198853
8.812169341,-1.52004063129425,-0.379860579967499,13.3776731491089
8.831726789,-1.77607262134552,0.510269403457642,11.3030958175659
8.851285018,-2.29292225837708,1.62053918838501,9.03948593139648
8.870844132,-2.35035014152527,1.91964197158813,8.35513877868652
8.890402309,-2.11585330963135,1.11565351486206,9.08255672454834
8.909959757,-1.46739852428436,0.223130717873573,9.98225784301758
8.929517987,-0.658624410629273,0.0149551415815949,10.1018991470337
8.949077101,-0.203988134860992,0.495912492275238,9.5659065246582
8.968635278,-0.029312077909708,1.04147601127625,8.8313102722168
8.988192726,0.353539556264877,1.141974568367,7.81436061859131
9.007750955,0.765105068683624,0.914656460285187,7.25204706192017
9.02731007,0.705284476280212,0.821336388587952,7.78803968429565
9.046868247,0.367896467447281,1.00558376312256,8.27138996124268
9.066425695,0.00658026244491339,1.55114722251892,7.78086090087891
9.085983924,-0.522233545780182,2.35992121696472,7.26161861419678
9.105542987,-0.876371264457703,2.93659162521362,7.09651374816895
9.125101216,-0.847657442092896,2.95334124565125,7.5607213973999
9.144658612,-0.907477974891663,2.81216478347778,8.34796047210693
9.164216893,-1.01276218891144,2.54177594184876,9.40319442749023
9.183775955,-1.23290181159973,2.38145685195923,10.5972137451172
9.203334132,-1.23529469966888,2.56091833114624,11.4993076324463
9.22289158,-0.73040908575058,2.92941308021545,11.0662069320679
9.242449809,-0.213559418916702,2.94377017021179,10.5900344848633
9.262008924,-0.148953214287758,2.40538501739502,10.5900344848633
9.281567101,-0.359521597623825,1.60139656066895,11.243275642395
9.301124549,-0.0963111147284508,1.16111719608307,12.5018997192383
9.320682778,0.293718993663788,1.32382917404175,13.0235357284546
9.340241893,0.583250522613525,1.3788640499115,12.8464670181274
9.35980007,0.97567343711853,0.594018220901489,13.2245321273804
9.379357518,1.23409831523895,-0.229112774133682,13.4542436599731
9.398915747,1.13359975814819,-0.470787853002548,12.1764764785767
9.418474809,1.27238345146179,0.158524498343468,10.0229358673096
9.438033039,1.41595280170441,0.984048306941986,8.07996368408203
9.457590434,1.30827581882477,1.46739852428436,7.23769044876099
9.477148716,0.666999340057373,1.25922286510468,7.61336326599121
9.496707778,0.382253408432007,0.7232306599617,8.50827884674072
9.516265955,0.410967290401459,0.287736922502518,9.04666423797607
9.535823403,0.475573509931564,0.268594354391098,9.10409164428711
9.555381632,0.408574461936951,0.57487565279007,9.00120067596436
9.574940747,0.339182615280151,0.850050270557404,8.74995422363281
9.594498924,0.513858675956726,0.845264613628388,8.503493309021
9.614056372,1.00917291641235,0.558125853538513,8.19003391265869
9.633614601,1.34656095504761,0.546161770820618,8.16610527038574
9.653173664,0.99481600522995,0.972084224224091,8.70209789276123
9.672731893,0.399003177881241,1.55832576751709,8.82891750335693
9.692289341,0.224327117204666,2.12303185462952,8.7236328125
9.71184757,0.839282512664795,2.42931318283081,8.22114086151123
9.731406632,1.30588293075562,2.35035014152527,8.24267578125
9.750964809,1.12642121315002,2.03928303718567,9.17109107971191
9.770522257,0.576072037220001,1.6564314365387,10.3028964996338
9.790080487,0.47796630859375,1.48893392086029,11.3748807907105
9.809639601,0.891924619674683,1.45304155349731,12.0329065322876
9.829197778,1.1742776632309,1.52482628822327,11.968300819397
9.848755226,0.990030348300934,1.91724920272827,11.1882400512695
9.868313455,0.635892629623413,2.25224423408508,11.2480611801147
9.887872518,1.2197413444519,1.98185539245605,12.1310129165649
9.907430747,1.87537479400635,1.48414826393127,12.7316112518311
9.926988143,1.79401874542236,1.87417829036713,12.0783700942993
9.946546424,0.722034215927124,2.22113752365112,10.9848508834839
9.966105487,-0.536590456962585,0.905085146427155,11.2097759246826
9.985663664,-0.065204419195652,-1.31066858768463,12.4971141815186
10.005221112,0.669392108917236,-1.85623216629028,12.4779720306396
10.024779341,-0.0149551415815949,-1.00678014755249,11.2887392044067
10.044338455,-1.14915311336517,-0.0137587301433086,9.88415241241455
10.063896632,-1.89092814922333,0.692123949527741,8.71406173706055
10.08345408,-1.66360998153687,0.48394837975502,8.44606590270996
10.103012309,-0.890728235244751,-0.114257283508778,8.63509845733643
10.122571372,-0.108275227248669,-0.0927218794822693,8.45563697814941
10.142129549,0.150149613618851,0.393021106719971,7.74975442886353
10.161686997,0.0376869551837444,1.02233350276947,6.71126937866211
10.181245226,-0.108275227248669,1.32622194290161,6.34516763687134
10.200804341,0.224327117204666,1.0438688993454,6.80219650268555
10.220362518,0.272183567285538,0.842871785163879,7.59900665283203
10.239919966,0.0376869551837444,0.821336388587952,8.03450012207031
10.259478195,-0.347557485103607,0.955334424972534,8.39820957183838
10.279037257,-1.12522482872009,1.15633153915405,9.04905700683594
10.298595434,-1.80000078678131,1.20658087730408,10.2143611907959
10.318152882,-1.71864485740662,1.03669035434723,11.2313108444214
10.337711112,-1.22093772888184,1.38843536376953,11.341381072998
10.357270226,-0.629910588264465,1.93399894237518,10.8771734237671
10.376828403,-0.184845551848412,2.27377963066101,10.4943218231201
10.396385851,0.0831505879759789,2.29770803451538,10.3435745239258
10.41594408,0.296111792325974,1.97228407859802,10.8269243240356
10.435503143,0.547358155250549,1.33579325675964,11.3318099975586
10.45506132,0.578464865684509,0.759122967720032,11.4203443527222
10.474618768,0.616750061511993,0.656231582164764,10.941780090332
10.494176997,0.829711258411408,1.20897364616394,10.8699951171875
10.513736112,1.07617199420929,0.974476993083954,10.7072830200195
10.533294289,1.55234372615814,-0.403788834810257,11.3509521484375
10.552851737,1.97348046302795,-1.46141648292542,12.8799657821655
10.572409966,2.05962204933167,-1.45902359485626,13.011570930481
10.591969028,1.4566308259964,-0.743569612503052,11.5256280899048
10.611527205,1.13359975814819,-0.188434779644012,10.3124675750732
10.631084653,1.05942225456238,-0.0975075215101242,9.69033336639404
10.650642882,0.824925601482391,-0.154935270547867,9.41755199432373
10.670201997,0.485144793987274,-0.0376869551837444,9.47976493835449
10.689760174,0.360718011856079,0.244666114449501,9.09212779998779
10.70931757,0.322432845830917,0.538983285427094,8.50110054016113
10.728875851,0.466002196073532,0.74237322807312,8.022536277771
10.748434914,0.59042900800705,0.931406199932098,7.71864748001099
10.767993091,0.556929469108582,1.22333061695099,7.39800930023193
10.787550539,0.382253408432007,1.41954207420349,7.26161861419678
10.807108768,-0.0317048989236355,1.34536457061768,7.74018287658691
10.82666783,-0.223130717873573,1.21375930309296,8.3503532409668
10.846226007,-0.187238365411758,1.26161575317383,8.48913669586182
10.865783455,-0.0556331276893616,1.55354011058807,8.62313461303711
10.885341684,0.224327117204666,2.01056933403015,9.15673446655273
10.904900747,0.334396958351135,1.98424816131592,9.71665477752686
10.924458976,0.442073971033096,1.47218418121338,10.6833553314209
10.944016372,0.666999340057373,1.29990088939667,12.1716909408569
10.963574601,1.14795660972595,1.45543432235718,12.5042924880981
10.983133716,1.67437767982483,1.82153618335724,11.6548404693604
11.002691893,1.66002070903778,1.98185539245605,10.6426773071289
11.022249289,1.08335041999817,1.63968169689178,10.2837533950806
11.041807518,0.894317448139191,1.39800667762756,10.5254287719727
11.061366632,1.16949212551117,1.87896394729614,10.3698949813843
11.080924809,1.08813607692719,2.29052948951721,10.3603239059448
11.100482205,0.717248558998108,1.85025012493134,9.94875812530518
11.120040487,-0.467198610305786,0.304486691951752,10.1018991470337
11.139599549,-1.82632184028625,-1.28434753417969,11.9706935882568
11.159157726,-1.87417829036713,-2.34436798095703,13.6121702194214
11.178715174,-1.17547416687012,-1.91365993022919,13.578670501709
11.198273403,-1.18504536151886,-0.96370929479599,11.5806636810303
11.217832466,-1.24725878238678,-0.284147679805756,10.0612211227417
11.237390643,-1.02951192855835,0.139381915330887,8.85763168334961
11.256948039,-0.931406199932098,0.498305320739746,7.79043245315552
11.276506268,-0.833300471305847,0.814157903194428,7.39561653137207
11.296065382,-0.608375132083893,0.931406199932098,7.63250589370728
11.315623559,-0.407378047704697,0.888335406780243,7.93878746032715
11.335180955,-0.254237413406372,0.802193820476532,7.69950485229492
11.354739184,-0.182452723383904,0.82372921705246,7.47218704223633
11.374298299,-0.168095797300339,0.864407181739807,7.4004020690918
11.393856476,-0.0604187734425068,0.830907642841339,7.80239629745483
11.413413872,-0.0412761904299259,0.82372921705246,8.44845867156982
11.432972101,-0.347557485103607,0.99122679233551,9.12323474884033
11.452531164,-0.651445984840393,1.40757787227631,9.48933601379395
11.472089341,-0.869192838668823,1.6564314365387,9.1591272354126
11.491646715,-0.931406199932098,1.58943247795105,9.09212779998779
11.511204944,-0.866800010204315,1.59421813488007,9.77886772155762
11.530764006,-0.488734036684036,1.88374960422516,10.1306133270264
11.550322183,-0.445663213729858,2.36949253082275,9.93679428100586
11.569879631,-0.988833963871002,2.5800609588623,10.1353988647461
11.58943786,-1.34297168254852,2.02731895446777,11.1379909515381
11.608996923,-0.876371264457703,0.933799028396606,11.9060869216919
11.6285551,-0.29491537809372,0.424127817153931,12.1118698120117
11.648112496,0.133399859070778,0.658624410629273,12.2817602157593
11.667670725,0.28175488114357,1.69471669197083,12.3320093154907
11.687229788,-0.354735970497131,2.00817632675171,11.8199453353882
11.706787965,-0.141774743795395,1.07258272171021,11.6165561676025
11.726345413,0.875174880027771,-0.317647218704224,11.6356983184814
11.745903642,1.68873453140259,-1.0929217338562,11.2360973358154
11.765462704,1.84426808357239,-1.1910275220871,10.3627166748047
11.785020829,1.37288200855255,-1.00438725948334,9.29791069030762
11.804578277,0.91346001625061,-0.717248558998108,8.65184879302979
11.824136506,0.602393090724945,-0.583250522613525,8.07517814636231
11.843695569,-0.0101694958284497,-0.571286380290985,8.69013404846191
11.863253746,-0.309272319078445,-0.449252456426621,9.94397258758545
11.882811142,-0.0915254652500153,-0.420538574457169,10.4799652099609
11.902369371,0.145363971590996,-0.219541475176811,10.1018991470337
11.921928433,0.104685992002487,0.151346027851105,9.60419178009033
11.94148661,-0.0245264321565628,0.515055060386658,9.33858871459961
11.961044006,0.0329013131558895,0.644267499446869,9.19980525970459
11.980602235,0.107078813016415,0.728016316890717,8.88634490966797
12.000161298,0.0975075215101242,0.835693299770355,8.4293155670166
12.019719475,0.0472582466900349,1.07018995285034,8.29292488098145
12.039276871,0.128614217042923,1.0845468044281,8.59920597076416
12.0588351,0.312861561775208,1.00079810619354,8.75952529907227
12.078394163,0.214755833148956,1.24247312545776,8.65184879302979
12.09795234,0.140578329563141,1.5870395898819,8.97009372711182
12.117509735,0.276969224214554,1.76889419555664,9.45105171203613
12.137067965,0.131007045507431,1.76889419555664,9.91286563873291
12.156627027,-0.132203444838524,1.74735867977142,10.635498046875
12.176185204,-0.017347963526845,2.0775682926178,11.1906337738037
12.1957426,0.611964404582977,2.38384962081909,10.374680519104
12.215300829,0.836889743804932,1.9794625043869,9.46062278747559
12.234859892,-0.0771685317158699,1.13958179950714,10.0779705047607
12.254418017,-0.333200544118881,0.220737889409065,12.2362966537476
12.273975465,0.279362052679062,0.129810631275177,13.2293186187744
12.293533642,0.298504620790482,0.529412031173706,12.5258283615112
12.313092704,-0.661017239093781,0.608375132083893,11.8486595153809
12.332650881,-1.34536457061768,-0.406181633472443,11.7696962356567
12.352208277,-1.12522482872009,-1.41834557056427,12.3296165466309
12.371766506,-0.270987153053284,-1.42073845863342,12.3367958068848
12.391325569,-0.211166605353355,-0.645463883876801,10.8723878860474
12.410883694,-0.665802896022797,0.101096756756306,9.53479957580566
12.430441142,-1.07736837863922,0.361914426088333,8.83370304107666
12.449999319,-0.919442117214203,0.0939182862639427,8.73320484161377
12.469558381,-0.407378047704697,-0.348753899335861,9.34098148345947
12.489116558,0.0305084884166718,-0.384646236896515,9.62572765350342
12.508673954,0.0496510714292526,0.184845551848412,8.70449066162109
12.528232183,-0.0460618361830711,0.859621524810791,7.5774712562561
12.547791194,-0.0101694958284497,1.18743824958801,6.9960150718689
12.567349371,0.339182615280151,1.19222390651703,6.83091020584106
12.586906767,0.614357233047485,1.00079810619354,7.32622480392456
12.606464996,0.293718993663788,0.835693299770355,8.15892696380615
12.626024006,-0.14656038582325,0.845264613628388,8.78106117248535
12.645582183,-0.481555551290512,1.13240337371826,9.12323474884033
12.665139579,-0.603589534759522,1.45304155349731,8.96291542053223
12.684697808,-0.668195724487305,1.65164577960968,8.87438106536865
12.704256871,-1.24965167045593,1.33579325675964,9.30748176574707
12.723814996,-1.71864485740662,1.05344021320343,10.3148603439331
12.743372392,-1.41714918613434,1.16111719608307,10.8460664749146
12.762930621,-0.969691395759583,1.64686024188995,10.4703941345215
12.782489631,-0.74237322807312,2.23070883750916,10.1593265533447
12.802047808,-0.510269403457642,2.26181554794312,10.2957172393799
12.821605204,-0.0269192550331354,1.3094722032547,11.1643123626709
12.841163433,0.202791720628738,0.180059909820557,12.3607234954834
12.860722444,0.681356251239777,-0.071186475455761,13.3034954071045
12.880280621,0.951745212078095,0.881156921386719,12.3320093154907
12.899838017,0.710070133209229,1.04147601127625,11.0446710586548
12.919396194,0.552143812179565,-0.0927218794822693,11.8008031845093
12.938955256,0.784247636795044,-1.56191504001617,13.0043926239014
12.958513381,0.817747116088867,-2.32761812210083,13.3058881759644
12.978070777,0.293718993663788,-1.63848531246185,12.0640134811401
12.997629006,0.0448654256761074,-0.647856712341309,9.85783100128174
13.017188017,0.305683106184006,-0.229112774133682,8.56570720672607
13.036746194,0.425324231386185,-0.25064817070961,8.48195838928223
13.05630359,0.384646236896515,-0.332004129886627,8.91027355194092
13.075861767,0.308075904846191,-0.365503668785095,9.25962543487549
13.095420829,0.159720912575722,-0.315254390239716,9.22612571716309
13.114978954,-0.0436690114438534,-0.0616151839494705,9.08973503112793
13.13453635,0.123828575015068,0.0149551415815949,8.74516868591309
13.154094579,0.628714144229889,0.184845551848412,8.26181793212891
13.17365359,0.360718011856079,0.775872766971588,8.1349983215332
13.193211715,-0.364307254552841,1.18504536151886,8.40778064727783
13.21276911,-1.07736837863922,1.36929273605347,8.82413196563721
13.23232734,-0.924227774143219,1.24725878238678,8.38863754272461
13.25188635,0.26021945476532,0.866800010204315,7.6707911491394
13.271444475,1.50209438800812,0.613160789012909,7.48175811767578
13.291001923,1.89212453365326,0.725623488426209,8.04646396636963
13.3105601,1.59302163124084,1.21615207195282,8.70449066162109
13.33011911,1.28195476531982,1.66839563846588,9.22373294830322
13.349677235,1.26281213760376,1.75214433670044,9.68315505981445
13.369234683,1.40159583091736,1.73300182819366,10.3507528305054
13.38879286,1.26759779453278,1.82871472835541,10.879566192627
13.408351871,0.915852844715118,1.97467684745789,10.9322080612183
13.427909996,0.966102123260498,1.74975156784058,10.8723878860474
13.447467392,1.28674042224884,1.182652592659,11.3724880218506
13.467025569,1.52123701572418,0.864407181739807,12.147762298584
13.486584631,0.860817968845367,1.22811627388,12.0592279434204
13.506142756,-0.168095797300339,1.82392907142639,11.0303144454956
13.525700152,-1.00319087505341,1.83110749721527,10.4416799545288
13.545258329,-1.12283205986023,0.984048306941986,11.5998058319092
13.564817392,-0.634696185588837,-0.164506554603577,12.4755792617798
13.584375517,-0.268594354391098,-0.767497837543488,11.642876625061
13.603932913,-0.536590456962585,-0.686141908168793,10.2885389328003
13.62349109,-1.19700956344605,-0.676570594310761,10.1665048599243
13.6430501,-1.11086785793304,-0.803390204906464,10.676176071167
13.662608225,-0.634696185588837,-0.700498819351196,10.398609161377
13.682165621,-0.455234497785568,-0.202791720628738,9.38883781433106
13.701723798,-0.469591438770294,0.263808697462082,8.6303129196167
13.721282808,-0.507876634597778,0.54376894235611,8.21156883239746
13.740840933,-0.393021106719971,0.756730139255524,7.88853788375855
13.760398329,0.0305084884166718,0.747158885002136,7.69950485229492
13.779956506,0.399003177881241,0.672981381416321,7.57268524169922
13.799515569,0.205184549093246,0.720837831497192,7.83111047744751
13.819073694,-0.158524498343468,0.854835867881775,8.30488872528076
13.83863109,-0.22552353143692,0.931406199932098,8.84566688537598
13.858189215,-0.180059909820557,1.26161575317383,8.79302501678467
13.877748277,-0.139381915330887,1.58464682102203,8.34078121185303
13.897306402,-0.52462637424469,2.09431791305542,9.19023323059082
13.916863746,-0.797408163547516,2.19242382049561,10.798210144043
13.936421923,-0.510269403457642,2.11106777191162,11.1786689758301
13.955980985,-0.376271367073059,2.09910368919373,10.3100748062134
13.97553911,-0.488734036684036,2.30727934837341,10.1210412979126
13.995096454,-0.462412983179092,2.10149645805359,10.6857481002808
14.014654631,-0.620339274406433,1.57746827602386,11.4658079147339
14.034213642,-0.905085146427155,0.768694281578064,12.0472640991211
14.053771767,-0.620339274406433,0.337986201047897,12.6981115341187
14.073329163,0.109471634030342,0.945763170719147,12.2793674468994
14.09288734,0.52821558713913,1.76889419555664,10.9034948348999
14.11244635,0.487537622451782,2.23788738250732,10.3603239059448
14.132004475,0.17168502509594,1.27597272396088,10.8915300369263
14.151561871,0.064008004963398,-0.0735792964696884,11.8845520019531
14.171120048,0.384646236896515,-1.01395857334137,12.3774728775024
14.190679058,0.982851922512054,-0.79621171951294,10.7910318374634
14.210237183,1.5667005777359,0.0915254652500153,8.24267578125
14.229794527,1.82512545585632,0.809372246265411,6.26620435714722
14.249352704,1.82991111278534,0.759122967720032,6.04367160797119
14.268911715,1.61694991588593,0.0269192550331354,7.59182786941528
14.28846984,1.15992081165314,-0.382253408432007,9.22612571716309
14.308027235,0.604785919189453,-0.367896467447281,9.83390331268311
14.32758536,0.0496510714292526,0.00299102836288512,9.45583724975586
14.347144371,-0.201595306396484,0.455234497785568,9.27637481689453
14.366702496,0.0759721174836159,0.737587571144104,9.27637481689453
14.386259892,0.159720912575722,0.859621524810791,9.08016395568848
14.405818069,0.0879362300038338,1.0845468044281,9.10409164428711
14.425377079,0.0951147004961968,1.20658087730408,8.99880790710449
14.444935152,0.198006078600883,1.33100759983063,8.72841835021973
14.464492548,0.427717059850693,1.51525497436523,8.78106117248535
14.484050725,0.633499801158905,1.64686024188995,9.03709316253662
14.503609735,0.55932229757309,1.70668077468872,9.35294532775879
14.52316786,0.365503668785095,1.61336064338684,9.91765117645264
14.542725204,0.229112774133682,1.54875445365906,10.7072830200195
14.562283381,0.123828575015068,1.74735867977142,10.8939237594605
14.581842392,0.341575443744659,2.26420831680298,10.456036567688
14.601400465,0.798604547977448,2.64945292472839,9.91525840759277
14.62095786,0.896710276603699,2.32163619995117,9.22373294830322
14.640516038,0.666999340057373,1.56789708137512,9.5324068069458
14.660075048,0.647856712341309,1.182652592659,10.6546411514282
14.679633121,0.497108906507492,1.38604247570038,10.7934246063232
14.699190517,-0.22552353143692,1.49850523471832,10.7072830200195
14.718748642,-1.05344021320343,0.491126835346222,10.8173532485962
14.738307652,-1.30707931518555,-1.13120687007904,11.7409820556641
14.757865777,-0.462412983179092,-2.65064930915833,13.937593460083
14.777423121,-0.148953214287758,-2.7846474647522,15.026328086853
14.796981298,-0.565304338932037,-1.52362978458405,13.1096773147583
14.816540308,-0.962512910366058,-0.221934303641319,10.7192468643188
14.836098433,-1.21615207195282,0.359521597623825,9.26201820373535
14.855655777,-1.03429758548737,0.184845551848412,9.11844921112061
14.875213954,-0.632303357124329,-0.229112774133682,9.412766456604
14.894772913,-0.361914426088333,-0.276969224214554,9.32662487030029
14.914331038,-0.337986201047897,0.0412761904299259,8.58484935760498
14.933888381,-0.527019202709198,0.582054078578949,7.88853788375855
14.953446558,-0.476769924163818,0.931406199932098,7.51765060424805
14.973005569,-0.242273285984993,0.955334424972534,7.42911624908447
14.992563642,-0.065204419195652,0.641874670982361,7.68275547027588
15.012121038,0.190827608108521,0.529412031173706,8.07517814636231
15.031679163,-0.0987039357423782,0.847657442092896,8.45324420928955
15.051238173,-0.725623488426209,1.25683009624481,8.65424156188965
15.070796298,-1.02233350276947,1.56311142444611,8.5968132019043
15.090353642,-0.806979417800903,1.5056836605072,8.65424156188965
15.109911767,-0.684945464134216,1.43868458271027,9.29312515258789
15.129470777,-0.7926225066185,1.42193484306335,10.1617193222046
15.149028902,-1.12761771678925,1.47457695007324,11.1188488006592
15.168586246,-1.07497560977936,1.76410853862762,11.748161315918
15.188144423,-0.553340256214142,2.03689026832581,11.4299154281616
15.207703381,-0.306879490613937,2.08235383033752,11.5184497833252
15.227261506,-0.440877586603165,1.40757787227631,11.4012012481689
15.24681885,-0.601196706295013,0.428913444280624,11.7194471359253
15.266376975,-0.184845551848412,0.065204419195652,12.9589290618896
15.285935985,0.456430912017822,0.421734988689423,12.9230365753174
15.305494058,0.580857694149017,0.668195724487305,12.3320093154907
15.325051454,0.262612283229828,0.440877586603165,12.5186500549316
15.344609579,0.140578329563141,-0.12143574655056,12.2889385223389
15.36416859,0.221934303641319,-0.442073971033096,11.5974130630493
15.383726663,0.315254390239716,0.00538385100662708,10.4727869033813
15.403284006,0.372682124376297,0.416949331760407,9.09212779998779
15.422842183,0.449252456426621,0.467198610305786,8.49392223358154
15.442401142,0.623928487300873,0.0436690114438534,8.7236328125
15.461959267,0.628714144229889,-0.245862528681755,9.13280582427979
15.48151661,0.348753899335861,-0.308075904846191,9.13041305541992
15.501074735,0.071186475455761,0.0245264321565628,8.65902709960938
15.520633746,-0.144167557358742,0.620339274406433,7.90528774261475
15.540191819,-0.144167557358742,1.18983101844788,7.27358245849609
15.559749163,-0.0675972402095795,1.48893392086029,6.9792652130127
15.57930734,0.248255342245102,1.63250327110291,6.98165845870972
15.598866298,0.544965386390686,1.70907354354858,7.17547702789307
15.618424423,0.494716078042984,1.67796683311462,7.62054204940796
15.637981767,0.26021945476532,1.43150615692139,8.22592639923096
15.657539892,0.219541475176811,1.29990088939667,9.13041305541992
15.677098902,0.609571576118469,1.32861483097076,9.8410816192627
15.696656975,0.966102123260498,1.35972142219543,10.1353988647461
15.716214319,0.832104086875916,1.50089800357819,10.1353988647461
15.735772444,0.753140926361084,1.84785723686218,10.415358543396
15.755331454,0.925424158573151,2.26181554794312,10.2478609085083
15.774889527,0.990030348300934,2.30010080337524,10.1234340667725
15.794446871,0.896710276603699,1.80000078678131,10.6211414337158
15.814004996,0.884746193885803,1.18504536151886,11.3844518661499
15.833564006,1.08335041999817,1.31425786018372,11.9180517196655
15.853122079,0.918245673179627,2.13499593734741,11.3844518661499
15.872679423,0.377467781305313,2.76909399032593,10.2622184753418
15.892237548,-0.594018220901489,2.2331018447876,9.453444480896
15.911796506,-1.35732865333557,0.44327038526535,10.798210144043
15.931354631,-0.993619620800018,-1.50927293300629,12.9996070861816
15.950911975,-0.28534409403801,-2.55254364013672,13.6169557571411
15.9704701,-0.062811590731144,-1.98065888881683,12.205189704895
15.990029058,-0.783051192760468,-0.645463883876801,10.032506942749
16.009587131,-1.48893392086029,0.196809664368629,8.31446075439453
16.029144475,-1.42911326885223,0.227916359901428,7.85982418060303
16.0487026,-0.651445984840393,-0.071186475455761,8.25703239440918
16.06826161,0.071186475455761,-0.164506554603577,8.75473976135254
16.087819683,0.0424726009368897,0.31645080447197,8.96291542053223
16.107377027,-0.242273285984993,0.78065836429596,8.61356353759766
16.126935152,-0.139381915330887,0.862014353275299,8.51785087585449
16.14649411,0.123828575015068,0.670588552951813,9.04666423797607
16.166052235,0.0999003425240517,0.409770876169205,9.75972557067871
16.185609527,-0.172881439328194,0.541376113891602,9.84347438812256
16.205167704,-0.397806763648987,0.92901337146759,9.71426200866699
16.224726663,-0.658624410629273,1.3668999671936,9.81236743927002
16.244284735,-0.847657442092896,1.68753814697266,9.80518913269043
16.263842079,-0.976869821548462,1.63728892803192,9.64726257324219
16.283400204,-1.15633153915405,1.50329077243805,9.90329456329346
16.302959163,-1.43150615692139,1.42193484306335,10.2263259887695
16.322517235,-1.33340036869049,1.57028985023499,10.5732851028442
16.342074579,-0.909870803356171,1.84785723686218,10.5684995651245
16.361632704,-0.175274252891541,2.29531502723694,10.2717895507813
16.381191715,0.303290277719498,2.41017055511475,9.7669038772583
16.400749788,0.176470667123795,1.96749842166901,10.1497554779053
16.420307079,0.169292196631432,1.46979129314423,11.1810617446899
16.439865204,0.480359137058258,1.52721905708313,11.2480611801147
16.459424215,0.315254390239716,1.37407839298248,10.7910318374634
16.478982288,0.0735792964696884,0.716052174568176,11.5304145812988
16.498539631,0.353539556264877,-0.387039065361023,12.3870449066162
16.518097756,1.35613226890564,-1.17667055130005,12.310474395752
16.537656715,2.06201481819153,-1.10727870464325,11.1116704940796
16.557214788,1.68634176254272,-0.0831505879759789,9.7070837020874
16.576772131,1.15992081165314,0.814157903194428,8.66859817504883
16.596330256,1.07138633728027,0.984048306941986,8.28574657440186
16.615889215,1.17188489437103,0.498305320739746,8.86720275878906
16.635447288,0.932602643966675,0.139381915330887,9.51805019378662
16.655004631,0.403788834810257,0.115453690290451,9.67597675323486
16.674562756,-0.065204419195652,0.314057976007462,9.18544769287109
16.694121715,-0.151346027851105,0.790229678153992,8.38385200500488
16.713679788,0.0305084884166718,1.28793680667877,7.7114691734314
16.733237131,0.198006078600883,1.59661090373993,7.2664041519165
16.752795256,0.0687936544418335,1.76410853862762,7.37168836593628
16.772354215,-0.0891326442360878,1.87417829036713,7.84546709060669
16.791912288,0.008973085321486,1.89092814922333,8.22114086151123
16.811469631,0.25064817070961,1.98903381824493,8.58006381988525
16.831027756,0.449252456426621,2.17328119277954,8.95095157623291
16.850586715,0.54017972946167,2.314457654953,9.09691333770752
16.870144788,0.686141908168793,2.0775682926178,9.34337425231934
16.889702131,0.80817586183548,1.57986116409302,10.0899353027344
16.909260256,0.882353365421295,1.36211431026459,11.1068849563599
16.928819215,0.750748097896576,1.80239367485046,11.1140632629395
16.948377288,0.418145745992661,2.20678067207336,10.097113609314
16.967934631,0.238684058189392,2.44367003440857,9.23330402374268
16.987492756,0.506680190563202,2.54177594184876,9.40080165863037
17.007051715,0.585643351078033,2.65902423858643,10.5972137451172
17.026609788,0.561715126037598,2.50109791755676,11.4945220947266
17.046167079,0.485144793987274,1.9387845993042,11.7266254425049
17.065725204,-0.160917326807976,0.986441135406494,12.1836547851563
17.085284215,-1.26879417896271,-0.104685992002487,12.8871440887451
17.104842288,-1.06779706478119,-1.13120687007904,13.3824586868286
17.124399579,0.279362052679062,-1.71744847297668,13.5116710662842
17.143957704,0.784247636795044,-1.34656095504761,12.5976133346558
17.163516663,0.312861561775208,-0.444466799497604,10.9537439346313
17.183074735,-0.208773776888847,0.0867398232221603,9.63051319122315
17.202632079,-0.26620152592659,0.168095797300339,8.90070247650147
17.222190204,-0.268594354391098,0.134596273303032,8.67338371276856
17.241749163,0.00658026244491339,0.25663024187088,8.63270568847656
17.261307235,0.193220421671867,0.440877586603165,8.62074184417725
17.280864579,0.202791720628738,0.684945464134216,8.53460025787354
17.300422704,0.159720912575722,0.976869821548462,8.04646396636963
17.319981663,0.276969224214554,1.23290181159973,7.74018287658691
17.339539735,0.425324231386185,1.42193484306335,7.2329044342041
17.359097079,0.506680190563202,1.68035972118378,6.89312362670898
17.378655204,0.475573509931564,1.8526428937912,6.82133913040161
17.398214163,0.11186445504427,1.98424816131592,7.02472925186157
17.417772235,-0.192024022340775,2.09671092033386,7.41954469680786
17.437329579,-0.48394837975502,1.87896394729614,8.04885673522949
17.456887704,-0.99122679233551,1.5056836605072,9.47737216949463
17.476446663,-1.31904351711273,1.1132607460022,11.1332054138184
17.496004735,-1.39082813262939,1.35972142219543,12.1501550674438
17.515562027,-1.3214362859726,2.13021039962769,12.0209426879883
17.535120152,-1.10608232021332,2.91027045249939,11.1547412872314
17.554679163,-0.986441135406494,2.95573425292969,10.8101749420166
17.574237235,-1.23768746852875,1.98424816131592,11.2959175109863
17.593794527,-1.15872430801392,0.546161770820618,12.3080816268921
17.613352652,0.231505587697029,0.165702968835831,13.3513517379761
17.63291161,1.2197413444519,0.926620543003082,12.2721891403198
17.652469683,0.999601662158966,1.63011038303375,10.7599248886108
17.672027027,0.798604547977448,1.14676022529602,10.8747806549072
17.691585152,1.02831554412842,-0.274576395750046,11.6907329559326
17.71114411,1.26281213760376,-1.02113711833954,11.9156589508057
17.730702183,1.27477622032166,-0.451645284891129,10.5421781539917
17.750259527,0.91346001625061,0.4648058116436,8.78106117248535
17.769817652,0.568893611431122,0.692123949527741,8.1756763458252
17.78937661,0.276969224214554,0.0556331276893616,9.10169887542725
17.808934683,0.0281156655400991,-0.635892629623413,10.2478609085083
17.828492027,-0.268594354391098,-0.834496915340424,10.7527465820313
17.848050152,-0.634696185588837,-0.530608415603638,10.2406826019287
17.86760911,-0.732801914215088,0.0269192550331354,9.19262599945068
17.887167183,-0.460020154714584,0.644267499446869,8.52742195129395
17.906724527,-0.160917326807976,1.24965167045593,8.0416784286499
17.926282652,0.008973085321486,1.7832510471344,7.62054204940796
17.94584161,0.0759721174836159,2.12063908576965,7.38365268707275
17.965399683,0.238684058189392,2.0608184337616,7.65882730484009
17.984956975,0.600000262260437,1.69471669197083,8.37906646728516
18.0045151,0.937388241291046,1.4482558965683,9.02273559570313
18.024074058,1.06181502342224,1.63011038303375,9.33858871459961
18.043632131,1.12402844429016,1.82153618335724,9.24526882171631
18.063189475,1.08095765113831,1.77367973327637,9.47976493835449
18.0827476,0.882353365421295,1.67318117618561,10.1210412979126
18.102306558,0.650249540805817,2.00099802017212,10.374680519104
18.121864631,0.698105990886688,2.34077882766724,9.46780109405518
18.141421975,0.860817968845367,2.3718855381012,8.57527828216553
18.1609801,0.803390204906464,2.2043879032135,8.76191806793213
18.180539058,0.918245673179627,2.13499593734741,9.79561805725098
18.200097131,1.04745817184448,2.32402896881104,10.2071828842163
18.219654475,0.0664008259773254,2.2331018447876,9.24526882171631
18.2392126,-1.09172534942627,1.66600275039673,10.3507528305054
18.258771558,-1.04626166820526,0.31645080447197,13.5044927597046
18.278329631,-0.414556533098221,-1.03788685798645,15.68674659729
18.297886975,-0.160917326807976,-1.51645135879517,15.4594287872314
18.3174451,0.0137587301433086,-0.480359137058258,12.9302158355713
18.337004058,-0.201595306396484,0.579661309719086,10.6331052780151
18.356562131,-0.369092881679535,0.890728235244751,9.65683364868164
18.376119423,-0.290129750967026,0.433699101209641,9.49890804290772
18.395677548,-0.282951265573502,-0.116650104522705,9.81954574584961
18.415236558,-0.381056994199753,-0.461216568946838,10.0540428161621
18.434794579,-0.503090977668762,-0.312861561775208,10.1449699401855
18.454351923,-0.582054078578949,0.199202477931976,9.66161918640137
18.473910048,-0.342771857976913,0.7926225066185,8.46760082244873
18.493469006,-0.103489577770233,1.26400852203369,7.58943510055542
18.513027079,0.0161515530198813,1.45782721042633,7.35015296936035
18.532584423,-0.108275227248669,1.49371957778931,7.74257564544678
18.552142548,-0.409770876169205,1.55832576751709,8.33121013641357
18.571701506,-0.536590456962585,1.56550419330597,8.71884727478027
18.591259579,-0.376271367073059,1.45304155349731,8.57767105102539
18.610816923,0.219541475176811,1.58225393295288,8.49870777130127
18.630375048,0.521037101745606,1.90289223194122,8.67577648162842
18.649934006,0.109471634030342,2.33838582038879,8.84088134765625
18.669492079,-0.553340256214142,2.74755859375,9.18544769287109
18.689049371,-0.933799028396606,2.83848595619202,9.87458038330078
18.708607496,-1.23050904273987,2.71405911445618,10.8771734237671
18.728166454,-1.15872430801392,2.63988161087036,11.4418792724609
18.747724527,-0.821336388587952,2.67816662788391,10.9154586791992
18.767281871,-0.390628308057785,2.70927333831787,10.6378908157349
18.786839996,-0.0077766734175384,2.64706015586853,10.6163558959961
18.806398954,0.284147679805756,2.5106692314148,10.6546411514282
18.825957027,0.183649137616158,2.08235383033752,10.9752788543701
18.845514371,0.140578329563141,1.06779706478119,12.0544424057007
18.865072444,0.52821558713913,-0.174077853560448,13.5619201660156
18.884631454,0.956530869007111,-1.03788685798645,14.0548419952393
18.904189475,1.09531462192535,-0.94456672668457,12.669397354126
18.923746819,1.11924278736115,-0.0185443758964539,10.1114702224731
18.943304944,1.01156580448151,0.790229678153992,7.80239629745483
18.962863902,0.918245673179627,1.32382917404175,6.84766006469727
18.982421975,0.934995472431183,1.22572338581085,6.89551687240601
19.001979267,0.717248558998108,0.883549749851227,7.40279483795166
19.021537392,0.0735792964696884,0.529412031173706,8.15174865722656
19.04109635,-0.261415868997574,0.385842651128769,9.29791069030762
19.060654423,-0.00299102836288512,0.182452723383904,10.2430753707886
19.080211767,0.336789786815643,0.282951265573502,10.3411808013916
19.09976984,0.571286380290985,0.641874670982361,9.32183837890625
19.119328798,0.578464865684509,1.21375930309296,8.22353363037109
19.138886871,0.530608415603638,1.66121709346771,7.74736166000366
19.158444215,0.363110840320587,1.96510565280914,7.74018287658691
19.17800234,0.190827608108521,2.12063908576965,8.0081787109375
19.197561298,0.147756800055504,2.24985146522522,8.20678329467773
19.217119319,0.226719945669174,2.57766819000244,8.68295478820801
19.236676663,0.267397940158844,2.7308087348938,9.00598621368408
19.256234788,0.236291229724884,2.56091833114624,9.71426200866699
19.275793746,0.26979073882103,2.17088842391968,10.4010019302368
19.295351819,0.537786900997162,1.81914341449738,11.3868446350098
19.31490911,0.779461979866028,1.7832510471344,11.8941230773926
19.334467235,0.693320333957672,2.06799697875977,11.2695960998535
19.354026194,0.360718011856079,2.14935302734375,10.7790679931641
19.373584267,0.188434779644012,1.83828604221344,11.2049903869629
19.39314161,0.399003177881241,2.0656042098999,11.6380910873413
19.412699683,0.710070133209229,2.66620254516602,11.1164560317993
19.432258694,0.305683106184006,2.84566426277161,10.0085792541504
19.451816715,-1.39082813262939,1.5176477432251,10.032506942749
19.471374058,-1.98903381824493,-0.265005111694336,12.6382913589478
19.490932183,-0.460020154714584,-0.920638501644135,13.4853506088257
19.510491142,0.430109858512878,-0.145363971590996,10.9633150100708
19.530049215,-0.196809664368629,1.31425786018372,9.02512836456299
19.549606506,-1.05344021320343,1.74496591091156,8.75473976135254
19.569164631,-1.13240337371826,1.0151549577713,9.61137008666992
19.58872359,-0.617946445941925,-0.0233300216495991,10.211968421936
19.608281663,-0.105882398784161,-0.384646236896515,10.3363952636719
19.627838954,-0.172881439328194,-0.0400797799229622,10.0995063781738
19.647397079,-0.541376113891602,0.567697167396545,9.87936687469482
19.666956038,-0.560518682003021,1.07497560977936,9.32423210144043
19.68651411,-0.158524498343468,1.19222390651703,8.97248649597168
19.706071454,0.147756800055504,1.05822587013245,8.6638126373291
19.725629579,-0.148953214287758,1.27836549282074,8.64466953277588
19.745188538,-0.60598236322403,1.53679037094116,8.76909637451172
19.76474661,-0.689731121063232,1.79282236099243,8.6973123550415
19.784303902,-0.467198610305786,2.04406881332397,8.31924629211426
19.803862027,-0.309272319078445,2.26660132408142,8.03928565979004
19.823420985,-0.498305320739746,2.37906384468079,8.15414142608643
19.842979058,-0.658624410629273,2.34556436538696,8.7236328125
19.862536402,-0.519840717315674,2.12781763076782,9.57547760009766
19.882094527,-0.507876634597778,2.09431791305542,10.6570339202881
19.901653485,-0.615553617477417,2.05603289604187,11.4418792724609
19.921211558,-0.404985219240189,1.96989119052887,11.5471639633179
19.940768902,-0.0891326442360878,1.68035972118378,11.1786689758301
19.960326975,0.20039889216423,1.53439748287201,11.2073831558228
19.979885985,0.724427044391632,1.96989119052887,11.2097759246826
19.999444058,0.923031330108643,2.41017055511475,10.8747806549072
20.01900135,0.844068169593811,2.14456725120544,11.3605241775513
20.038559475,0.755533754825592,1.20179522037506,11.9060869216919
20.058118433,0.911067247390747,0.438484758138657,12.1286201477051
20.077676506,1.26759779453278,0.129810631275177,11.5375928878784
20.09723385,1.34656095504761,0.653838813304901,10.2239332199097
20.116791975,1.23409831523895,1.35254299640656,8.92223739624023
20.136350985,0.846460998058319,1.63728892803192,8.16371250152588
20.155909058,0.657428026199341,1.26161575317383,8.3694953918457
20.17546635,0.650249540805817,0.534197628498077,9.15673446655273
20.195024475,0.547358155250549,0.287736922502518,9.52522850036621
20.214583485,0.198006078600883,0.54376894235611,8.87916660308838
20.234141558,-0.0891326442360878,1.08933246135712,8.03210735321045
20.253698902,-0.199202477931976,1.51286208629608,7.55593585968018
20.273257027,0.0305084884166718,1.72343051433563,7.81436061859131
20.292815985,0.308075904846191,1.86699986457825,8.05364322662354
20.312374058,0.152542442083359,2.14935302734375,8.11346340179443
20.331931402,0.0305084884166718,2.38863515853882,8.31206798553467
20.351489527,0.147756800055504,2.4819552898407,8.48674392700195
20.371048538,0.461216568946838,2.68055963516235,8.71406173706055
20.39060661,0.638285458087921,2.65184569358826,8.89352321624756
20.410163954,0.521037101745606,2.40299224853516,9.70229721069336
20.429722079,0.387039065361023,1.95553433895111,10.7240333557129
20.44928109,0.320040017366409,1.52243340015411,11.748161315918
20.468839163,0.521037101745606,1.74735867977142,11.9324083328247
20.488396506,1.02113711833954,2.40059924125671,10.5086784362793
20.507954631,1.45902359485626,2.80737924575806,9.12802028656006
20.52751359,1.7916259765625,2.47956252098084,8.98684406280518
20.547071715,2.07876467704773,1.85025012493134,10.9226369857788
20.566629058,1.85862493515015,1.80478644371033,11.9587297439575
20.586187183,1.00917291641235,2.48913383483887,11.063814163208
20.605746194,-0.536590456962585,3.0131618976593,10.3483600616455
20.625304267,-1.49850523471832,2.12542462348938,10.7192468643188
20.64486161,-1.10847508907318,0.127417802810669,12.5210428237915
20.664419735,-0.548554599285126,-0.853639483451843,14.0237350463867
20.683978746,-0.82372921705246,0.00538385100662708,12.9206438064575
20.703536819,-1.40997076034546,1.10368943214417,10.49671459198
20.723094163,-1.76650130748749,1.52961182594299,9.11844921112061
20.74265234,-1.72343051433563,1.0151549577713,8.91745185852051
20.762211298,-1.31425786018372,0.462412983179092,8.97248649597168
20.781769423,-1.1012966632843,0.431306272745132,9.22851848602295
20.801326767,-1.11086785793304,0.857228696346283,9.0323076248169
20.820884892,-0.838086128234863,1.22093772888184,8.54895687103272
20.840443902,-0.428913444280624,1.39800667762756,7.70429086685181
20.860002027,0.123828575015068,1.46739852428436,6.9553370475769
20.879559371,0.377467781305313,1.56071853637695,6.77348279953003
20.899117496,0.147756800055504,1.73060894012451,7.04147863388062
20.918676506,-0.26620152592659,1.92921328544617,7.68993377685547
20.938234631,-0.620339274406433,2.0608184337616,8.37428092956543
20.957791975,-0.737587571144104,2.26899409294128,8.69491958618164
20.9773501,-0.775872766971588,2.37667107582092,8.49870777130127
20.99690911,-0.907477974891663,2.36470699310303,8.58484935760498
21.016467235,-1.07736837863922,2.19003081321716,9.18784046173096
21.036024579,-1.27118706703186,2.17328119277954,10.0779705047607
21.055582756,-1.18983101844788,2.42931318283081,10.6259269714355
21.075141767,-0.519840717315674,2.43888449668884,9.85065269470215
21.09469984,-0.239880472421646,2.02731895446777,10.2670040130615
21.114257235,-0.500698149204254,1.02711915969849,12.0783700942993
21.13381536,-0.321236431598663,0.407378047704697,13.7724885940552
21.153374371,0.0951147004961968,0.76151579618454,14.0644130706787
21.172932496,0.164506554603577,1.27597272396088,12.9972143173218
21.19248984,0.0257228426635265,1.06301140785217,13.2173538208008
21.212048017,0.339182615280151,-0.0257228426635265,14.0380926132202
21.231607027,0.911067247390747,-0.717248558998108,13.9064874649048
21.251165152,1.27477622032166,-0.322432845830917,12.1022987365723
21.270722496,1.27477622032166,0.73040908575058,9.78365325927734
21.290280673,1.23649108409882,1.54875445365906,7.95553731918335
21.309839683,1.13599252700806,1.34536457061768,7.85982418060303
21.329397756,1.15513515472412,0.586839735507965,8.95095157623291
21.348955152,1.03788685798645,0.151346027851105,9.59222793579102
21.368513329,0.609571576118469,0.148953214287758,9.61854839324951
21.38807234,0.186041966080666,0.309272319078445,9.58265686035156
21.407630413,0.25064817070961,0.457627326250076,9.00359344482422
21.427187808,0.600000262260437,0.692123949527741,8.07039260864258
21.446745985,0.774676322937012,0.986441135406494,7.3238320350647
21.466304996,0.700498819351196,1.43389892578125,6.87158823013306
21.485863121,0.26021945476532,1.80000078678131,6.77348279953003
21.505420465,-0.065204419195652,1.96031999588013,7.156334400177
21.524978642,0.0759721174836159,1.99381947517395,7.63250589370728
21.544537652,0.470787853002548,2.12303185462952,7.86939525604248
21.564095777,0.707677304744721,2.31206488609314,8.24506855010986
21.583653121,0.578464865684509,2.44606304168701,8.82652473449707
21.603211298,0.425324231386185,2.29770803451538,9.6999044418335
21.622770308,0.365503668785095,2.10628223419189,11.1906337738037
21.642328433,0.470787853002548,2.14456725120544,11.9156589508057
21.661885829,0.54017972946167,2.35752844810486,11.5950202941895
21.681443954,0.54017972946167,2.29770803451538,11.38205909729
21.701003017,0.666999340057373,1.82632184028625,12.0640134811401
21.72056109,1.09770739078522,1.8406788110733,12.4684009552002
21.740118485,1.30588293075562,2.64466714859009,10.9561367034912
21.759676663,1.18384897708893,3.08016085624695,9.61615562438965
21.779235673,0.17168502509594,1.78085827827454,10.5206432342529
21.798793798,-0.469591438770294,-0.16211374104023,13.1216411590576
21.818351194,0.176470667123795,-1.2604193687439,14.2199468612671
21.837909319,0.573679208755493,-0.542572557926178,12.2004041671753
21.857468381,0.0544367134571075,0.622732102870941,9.66401290893555
21.877026454,-0.412163704633713,0.895513892173767,8.38624477386475
21.89658385,-0.426520645618439,0.467198610305786,8.56809997558594
21.916142027,-0.55573308467865,0.0269192550331354,9.00359344482422
21.935701038,-0.620339274406433,0.0987039357423782,9.33858871459961
21.955259163,-0.409770876169205,0.433699101209641,9.13280582427979
21.974816558,-0.158524498343468,0.964905738830566,8.1756763458252
21.994374735,0.119042925536633,1.42432773113251,7.07976388931274
22.013933746,0.413360118865967,1.60857498645782,6.86440992355347
22.033491871,0.403788834810257,1.72103774547577,7.35254573822022
22.053049215,0.0759721174836159,1.78803670406342,8.24028301239014
22.072607392,-0.105882398784161,1.7832510471344,9.06102085113525
22.092166402,-0.156131684780121,1.75932288169861,9.41755199432373
22.111724527,-0.323629260063171,1.87417829036713,9.53479957580566
22.131281923,-0.562911510467529,1.89332091808319,9.75494003295898
22.1508401,-0.637089014053345,1.91246354579926,10.2478609085083
22.17039911,-0.404985219240189,2.2331018447876,11.099705696106
22.189957235,-0.304486691951752,2.43409872055054,12.3224382400513
22.209514631,-0.0532403029501438,2.36231422424316,12.8799657821655
22.229072808,0.0831505879759789,2.28095817565918,12.0185499191284
22.248631819,0.0281156655400991,2.14696002006531,11.2002048492432
22.268189944,0.0783649384975433,1.51046931743622,10.8460664749146
22.28774734,0.142971158027649,0.97926265001297,10.7383899688721
22.307305517,0.399003177881241,1.16590285301209,10.1497554779053
22.326864527,0.334396958351135,2.07996106147766,9.34337425231934
22.346422652,-0.144167557358742,2.19481658935547,9.91765117645264
22.365980048,-0.170488610863686,1.64925301074982,11.0973129272461
22.385538225,-0.0340977236628532,0.806979417800903,11.1882400512695
22.405097235,-0.0795613527297974,0.259023040533066,10.7814607620239
22.42465536,-0.263808697462082,0.160917326807976,10.1808624267578
22.444212756,-0.0532403029501438,0.448056042194366,9.35294532775879
22.463770933,0.355932354927063,0.924227774143219,8.2091760635376
22.483329944,0.69571316242218,1.2807582616806,7.29751062393189
22.502888069,0.937388241291046,1.26161575317383,7.00797939300537
22.522445465,1.10010015964508,0.787836849689484,7.60379219055176
22.542003642,0.879960536956787,0.105882398784161,8.9246301651001
22.561562652,0.434895515441895,-0.248255342245102,10.3124675750732
22.581120777,0.315254390239716,-0.0903290584683418,10.9728860855103
22.600678173,0.195613250136375,0.55573308467865,10.2861461639404
22.62023635,0.138185501098633,1.28554391860962,9.21655464172363
22.63979536,0.138185501098633,1.62293195724487,8.80020332336426
22.659353485,0.0233300216495991,1.75453722476959,8.91027355194092
22.678910881,-0.223130717873573,1.89092814922333,9.0514497756958
22.698469058,-0.117846518754959,1.9914265871048,8.99402236938477
22.718028069,0.236291229724884,1.85742855072021,8.87916660308838
22.737586194,0.48993045091629,1.76410853862762,8.98205757141113
22.75714359,0.659820854663849,1.91964197158813,8.91984462738037
22.776701767,0.657428026199341,2.36231422424316,8.69013404846191
22.796260829,0.633499801158905,2.51784753799438,8.86002445220947
22.815818954,0.772283494472504,2.11585330963135,9.94397258758545
22.835376298,0.824925601482391,1.8526428937912,11.1738834381104
22.854934579,0.786640465259552,2.07517552375793,11.4825572967529
22.874493538,0.78903329372406,2.39102792739868,10.8676023483276
22.894051663,1.00438725948334,2.56331133842468,10.7359972000122
22.913609058,1.48055899143219,2.14456725120544,10.9082803726196
22.933167235,1.72701978683472,1.96271276473999,10.6163558959961
22.952726246,0.877567708492279,1.92682039737701,10.8077812194824
22.972284371,-0.517447888851166,1.38843536376953,12.1118698120117
22.991841767,-1.41714918613434,-0.308075904846191,13.2987098693848
23.011399944,-0.905085146427155,-1.75573360919952,13.3011026382446
23.030958954,-0.263808697462082,-1.40159583091736,11.9252300262451
23.050517079,-0.759122967720032,-0.0568295381963253,10.1186485290527
23.070074475,-1.31904351711273,1.08933246135712,8.95095157623291
23.089632652,-1.29990088939667,1.38843536376953,8.20678329467773
23.109191663,-0.838086128234863,0.964905738830566,7.85264587402344
23.12874984,-0.452841699123383,0.196809664368629,8.32881736755371
23.148307183,-0.26620152592659,-0.29132616519928,9.52522850036621
23.16786536,-0.0795613527297974,-0.20039889216423,10.2837533950806
23.187424423,0.0855434089899063,0.31645080447197,9.86500930786133
23.206982548,0.30089744925499,0.804586589336395,8.81695365905762
23.226539944,0.389431893825531,0.919442117214203,8.46520805358887
23.246098121,0.346361070871353,0.878764092922211,8.57288551330566
23.265657131,0.188434779644012,0.976869821548462,8.86241722106934
23.285215256,0.128614217042923,1.27836549282074,8.55613517761231
23.304772652,-0.0101694958284497,1.59182524681091,7.77128982543945
23.324330829,-0.0412761904299259,1.65403866767883,7.36211729049683
23.34388984,0.0687936544418335,1.46500563621521,7.39800930023193
23.363447965,-0.0795613527297974,1.4482558965683,7.43629455566406
23.38300536,-0.373878538608551,2.00578355789185,7.63250589370728
23.402563538,-0.424127817153931,2.74755859375,7.67318391799927
23.422122548,-0.48394837975502,3.31705045700073,8.03450012207031
23.441680725,-1.1012966632843,3.13280296325684,9.5324068069458
23.461238069,-1.60139656066895,2.72602319717407,11.86301612854
23.480796246,-0.725623488426209,1.99381947517395,12.3296165466309
23.500355308,0.396610349416733,1.46021997928619,12.0018005371094
23.519913433,0.79621171951294,1.54636168479919,12.894323348999
23.539470829,0.946959555149078,1.82392907142639,12.2817602157593
23.559029006,0.822532773017883,1.75692999362946,10.9728860855103
23.578588017,0.418145745992661,0.495912492275238,11.2456684112549
23.598146142,0.434895515441895,-0.954138040542603,12.0783700942993
23.617703538,1.29391884803772,-1.10010015964508,11.4347009658813
23.637261715,1.7222341299057,0.0939182862639427,9.60419178009033
23.656820725,1.78205466270447,1.52004063129425,8.30488872528076
23.67637885,2.28694033622742,2.61356043815613,8.16610527038574
23.695936246,2.40897417068481,3.35054993629456,8.17089080810547
23.715494423,1.48773753643036,3.00119781494141,8.40538787841797
23.735053433,0.310468733310699,1.45304155349731,10.4919290542603
23.754611558,0.159720912575722,0.263808697462082,13.2867460250855
23.774168954,0.829711258411408,0.0340977236628532,13.7820606231689
23.793727131,0.858425140380859,0.716052174568176,11.5471639633179
23.813286194,0.437288343906403,1.33100759983063,9.73101139068604
23.832844319,0.30089744925499,1.03429758548737,9.42951583862305
23.852401663,0.683749079704285,0.620339274406433,9.92004489898682
23.871959944,0.638285458087921,0.694516777992249,9.51805019378662
23.891518902,0.461216568946838,1.23290181159973,8.93420124053955
23.911077027,0.0735792964696884,1.72343051433563,8.38624477386475
23.930634423,-0.208773776888847,2.22831606864929,7.68036270141602
23.950192548,0.0448654256761074,2.45563435554504,6.84766006469727
23.96975161,0.616750061511993,2.12542462348938,6.33798885345459
23.989309735,0.863210797309876,1.4482558965683,6.82373189926148
24.008867131,0.671784937381744,0.833300471305847,7.85743141174316
24.028425308,0.655035197734833,0.821336388587952,8.49631500244141
24.047984319,0.930209815502167,1.49371957778931,7.98903656005859
24.067542444,1.09770739078522,2.27856540679932,6.55334281921387
24.08709984,1.07377910614014,2.55852556228638,6.36191701889038
24.106657965,1.13120687007904,1.91246354579926,7.72104024887085
24.126217027,1.19342029094696,1.59661090373993,9.37208843231201
24.145775152,1.29631161689758,2.13738894462585,9.70947647094727
24.165332496,1.2317054271698,2.6255247592926,9.36969566345215
24.184890673,1.44466662406921,2.39342093467712,10.0516500473022
24.204449735,1.26281213760376,1.3668999671936,12.7052898406982
24.22400786,0.154935270547867,-0.071186475455761,14.765510559082
24.243565204,-0.998405277729034,-1.68873453140259,14.9617214202881
24.263123381,-0.976869821548462,-1.90887427330017,16.1246337890625
24.282682392,-0.438484758138657,-1.10727870464325,15.1770753860474
24.302240517,-0.7926225066185,0.196809664368629,11.666805267334
24.321797913,-2.12781763076782,1.61814630031586,8.3503532409668
24.34135609,-2.97966241836548,2.13260316848755,7.37647390365601
24.3609151,-2.01056933403015,1.93639171123505,8.39581680297852
24.380473225,-0.768694281578064,1.3094722032547,9.01077175140381
24.400030621,-0.163310140371323,0.704088091850281,10.0085792541504
24.419588746,1.05224370956421,-0.104685992002487,11.059027671814
24.439147756,1.987837433815,-0.0879362300038338,11.4442720413208
24.458705881,1.6360924243927,0.550947427749634,11.1954193115234
24.478263277,0.650249540805817,0.818943560123444,11.2289180755615
24.497821454,0.30089744925499,0.471984267234802,11.4299154281616
24.517380465,0.973280608654022,-0.10229317098856,11.1978120803833
24.53693859,1.56430780887604,0.0317048989236355,10.0348997116089
24.556495933,1.25084805488586,1.17786693572998,8.01535797119141
24.57605411,0.628714144229889,2.27138686180115,6.60598516464233
24.595613121,0.209970191121101,2.45563435554504,6.26620435714722
24.615171246,-0.182452723383904,1.9387845993042,7.13479900360107
24.634728642,-0.649053156375885,1.97706973552704,8.54177856445313
24.654286767,-0.854835867881775,2.99401926994324,9.77168941497803
24.673845777,-0.452841699123383,3.95832681655884,8.98923683166504
24.693403902,0.332004129886627,3.76929378509522,7.9651083946228
24.712961298,0.513858675956726,2.355135679245,8.97009372711182
24.732519423,0.164506554603577,1.05583298206329,11.5136642456055
24.752078433,0.365503668785095,0.97926265001297,13.4686002731323
24.771636558,1.2317054271698,1.79282236099243,12.5018997192383
24.791193902,2.51425838470459,2.95573425292969,11.3150596618652
24.810752079,1.84666085243225,3.5850465297699,11.0039930343628
24.83031109,-0.665802896022797,1.35015022754669,11.3007030487061
24.849869215,-1.13001048564911,-1.2436695098877,13.7365970611572
24.869426558,0.138185501098633,-1.62652122974396,15.229718208313
24.888984735,0.544965386390686,0.29491537809372,11.666805267334
24.908543746,0.236291229724884,1.76171565055847,7.91725206375122
24.928101819,0.310468733310699,2.16370987892151,7.28315401077271
24.947659215,0.499501734972,1.56311142444611,8.40778064727783
24.967217392,0.114257283508778,1.13240337371826,9.52283573150635
24.98677635,-0.739980399608612,0.890728235244751,10.7024974822998
25.006334475,-1.12283205986023,0.696909606456757,11.3772735595703
25.025891819,-0.613160789012909,0.519840717315674,10.7694969177246
25.045449996,-0.117846518754959,0.670588552951813,9.73818969726563
25.065009006,-0.0197407864034176,1.05344021320343,8.89830875396729
25.084567079,-0.0891326442360878,1.44347023963928,8.27138996124268
25.104124475,0.10229317098856,1.78564393520355,7.81675338745117
25.1236826,0.506680190563202,1.95792710781097,7.31186771392822
25.14324161,0.834496915340424,2.13260316848755,6.45284461975098
25.162799735,0.834496915340424,2.31206488609314,5.88335275650024
25.182357079,0.11186445504427,2.45563435554504,6.57966423034668
25.201915204,-0.938584685325623,2.37427830696106,8.4101734161377
25.221474215,-1.27118706703186,1.92682039737701,10.8412809371948
25.24103234,-0.0987039357423782,1.91246354579926,11.805588722229
25.260589683,1.05702936649323,2.51545476913452,11.2408828735352
25.280147808,0.997208833694458,2.93419885635376,10.5421781539917
25.299706819,0.54017972946167,2.13499593734741,10.7862462997437
25.319264944,0.932602643966675,1.01036942005157,12.2530469894409
25.338822288,1.92083835601807,0.708873689174652,13.3250312805176
25.358380413,1.91365993022919,1.71625208854675,12.5545425415039
25.377939423,1.34177529811859,2.33838582038879,10.8652095794678
25.397497548,-0.0197407864034176,1.64925301074982,9.50130081176758
25.417054892,-1.25683009624481,-0.652642369270325,10.7144613265991
25.436613017,-1.39322102069855,-2.17447757720947,13.3298168182373
25.456172027,-1.38604247570038,-1.89212453365326,13.8059883117676
25.4757301,-1.97706973552704,-0.315254390239716,10.578070640564
25.495287444,-2.5920250415802,0.6801598072052,8.10867786407471
25.514845621,-2.39820647239685,0.601196706295013,8.02732181549072
25.534404631,-1.75692999362946,0.337986201047897,8.88634490966797
25.553962704,-1.56311142444611,0.646660327911377,9.36969566345215
25.573520048,-1.61814630031586,1.10847508907318,9.17587661743164
25.593078225,-1.56311142444611,1.62532472610474,8.71166896820068
25.612637183,-0.854835867881775,1.64925301074982,8.14217758178711
25.632195308,-0.062811590731144,1.46500563621521,7.98425102233887
25.651752652,0.248255342245102,1.31425786018372,8.15653419494629
25.671310777,-0.0317048989236355,1.44107747077942,8.52981472015381
25.690869788,-0.632303357124329,1.93160605430603,9.1256275177002
25.710427913,-1.20179522037506,2.52981185913086,9.37448120117188
25.729985256,-0.862014353275299,2.3718855381012,8.76909637451172
25.749543381,-0.821336388587952,2.06321144104004,9.28116035461426
25.769102392,-1.03429758548737,1.78564393520355,10.456036567688
25.788660465,-1.19461667537689,1.9387845993042,10.8460664749146
25.808217808,-1.37407839298248,2.24506592750549,10.8628168106079
25.827775985,-1.05344021320343,2.30727934837341,10.6881408691406
25.847334944,-0.522233545780182,2.03449749946594,10.3962163925171
25.866893069,-0.337986201047897,1.87178552150726,10.4105730056763
25.886450413,-0.330807715654373,1.76171565055847,10.7096757888794
25.906008538,-0.684945464134216,1.68753814697266,11.1643123626709
25.925567548,-1.13479614257813,1.63968169689178,11.7673034667969
25.945125621,-0.775872766971588,1.57746827602386,12.2530469894409
25.964683017,-0.385842651128769,1.51525497436523,11.6069841384888
25.984241142,-0.682552635669708,0.900299549102783,11.4083805084229
26.003800152,-0.883549749851227,-0.0472582466900349,12.3152599334717
26.023358225,-0.388235479593277,-0.631106972694397,12.7411823272705
26.042915569,0.0927218794822693,-0.640678286552429,11.6117696762085
26.062473746,0.186041966080666,-0.320040017366409,10.0229358673096
26.082032704,0.284147679805756,0.213559418916702,8.91266632080078
26.101590829,0.372682124376297,1.14676022529602,7.92443037033081
26.121148173,0.358325183391571,1.85503578186035,6.82612466812134
26.140706298,0.367896467447281,1.56550419330597,6.0939211845398
26.160265308,0.310468733310699,0.412163704633713,7.14197731018066
26.179823381,0.25064817070961,-0.73878401517868,9.16152000427246
26.199380725,0.580857694149017,-1.21017003059387,10.4105730056763
26.218938902,0.48993045091629,-0.556929469108582,10.0995063781738
26.23849786,-0.318843603134155,0.783051192760468,9.02991485595703
26.258055933,-0.744766056537628,1.68275249004364,9.06341361999512
26.277613329,-0.189631193876266,1.80239367485046,9.10648441314697
26.297171454,0.614357233047485,1.74975156784058,8.75234699249268
26.316730465,0.834496915340424,1.92442762851715,8.33121013641357
26.336288538,0.391824722290039,2.17806673049927,8.3024959564209
26.355845881,0.0735792964696884,2.15174579620361,8.93898677825928
26.375404006,0.147756800055504,2.00339078903198,9.51565742492676
26.394963017,0.676570594310761,1.85982143878937,9.27637481689453
26.41452109,0.832104086875916,1.99621224403381,8.97966480255127
26.434078485,0.556929469108582,1.94835579395294,9.35533809661865
26.45363661,0.248255342245102,1.76410853862762,9.86740207672119
26.473195569,0.401396006345749,1.95074868202209,10.1928262710571
26.492753694,0.530608415603638,1.95553433895111,10.2047901153564
26.512311038,0.480359137058258,1.74496591091156,10.2478609085083
26.531869163,0.638285458087921,1.45543432235718,10.1473627090454
26.551428173,1.46380925178528,1.30229377746582,9.67119121551514
26.570986246,2.21754837036133,1.51286208629608,8.98205757141113
26.59054359,2.2247269153595,1.66360998153687,8.81695365905762
26.610101767,2.20079851150513,1.34297168254852,10.0181503295898
26.629660725,1.88016045093536,0.393021106719971,11.3772735595703
26.64921885,0.970887780189514,-1.12642121315002,13.0474634170532
26.668776194,0.403788834810257,-2.14097809791565,14.9976139068604
26.688334319,-0.213559418916702,-2.58604311943054,15.5527486801147
26.707893277,-1.28315114974976,-1.8490537405014,14.9377937316895
26.727451402,-1.50807642936707,-0.79621171951294,12.5401849746704
26.747008746,-1.38843536376953,0.213559418916702,9.97747230529785
26.766566871,-1.25922286510468,0.622732102870941,8.10628509521484
26.786125881,-1.08933246135712,0.594018220901489,7.56789970397949
26.805683954,-0.833300471305847,0.369092881679535,8.22114086151123
26.825241298,-0.795015335083008,0.534197628498077,8.45324420928955
26.844799423,-0.864407181739807,0.802193820476532,8.09192752838135
26.864358433,-0.586839735507965,0.756730139255524,7.60139942169189
26.883916506,-0.397806763648987,0.510269403457642,7.72582626342773
26.90347385,-0.0484546571969986,0.421734988689423,7.97228670120239
26.923032027,0.104685992002487,0.842871785163879,7.97228670120239
26.942590985,-0.113060869276524,1.38843536376953,8.11346340179443
26.96214911,-0.314057976007462,1.82632184028625,7.86460971832275
26.981706454,-0.182452723383904,2.02253341674805,7.92921590805054
27.001264579,0.0879362300038338,1.95074868202209,8.46042251586914
27.020823538,0.0185443758964539,1.8813568353653,9.18784046173096
27.040381663,-0.268594354391098,1.82632184028625,9.77886772155762
27.059939006,-0.507876634597778,1.78564393520355,10.4345016479492
27.079497131,-0.28534409403801,1.61814630031586,10.9346008300781
27.099056142,0.140578329563141,1.69232380390167,10.9968147277832
27.118614215,0.243469700217247,1.88614249229431,10.3627166748047
27.138171558,-0.0221336092799902,1.80000078678131,10.0348997116089
27.157729683,-0.426520645618439,1.30229377746582,10.398609161377
27.177288642,-0.393021106719971,0.601196706295013,11.642876625061
27.196846767,0.265005111694336,0.357128769159317,11.9994077682495
27.21640411,0.45882374048233,0.799800992012024,11.0159568786621
27.235962235,0.382253408432007,1.19222390651703,9.70229721069336
27.255521246,0.303290277719498,1.05822587013245,9.5324068069458
27.275079319,0.238684058189392,-0.0759721174836159,11.0877418518066
27.294636663,0.46839502453804,-1.05463659763336,12.7555389404297
27.314194788,0.643071115016937,-0.863210797309876,12.6741828918457
27.333753746,0.626321315765381,-0.174077853560448,11.0853490829468
27.353311871,0.841675341129303,0.175274252891541,9.81236743927002
27.372869215,1.27238345146179,-0.274576395750046,9.90329456329346
27.39242734,1.45902359485626,-0.946959555149078,10.5134649276733
27.411986298,1.18145620822907,-1.17667055130005,10.9585294723511
27.431544371,0.690927565097809,-0.836889743804932,10.8915300369263
27.451101715,0.372682124376297,-0.262612283229828,9.9942216873169
27.47065984,0.336789786815643,0.26620152592659,8.82891750335693
27.49021885,0.401396006345749,0.4648058116436,8.16131973266602
27.509776923,0.54017972946167,0.450448870658875,7.85025310516357
27.529334267,0.516251504421234,0.649053156375885,7.81436061859131
27.548892392,0.245862528681755,1.09411811828613,7.76889705657959
27.56845135,0.0161515530198813,1.52961182594299,7.90050220489502
27.588009475,0.11186445504427,1.62053918838501,8.02492904663086
27.607566767,0.365503668785095,1.60378932952881,8.21874713897705
27.627124892,0.561715126037598,1.5176477432251,8.34556674957275
27.646683902,0.444466799497604,1.34775733947754,9.16869831085205
27.666241975,0.286540508270264,1.29990088939667,10.097113609314
27.685799319,0.437288343906403,1.34775733947754,10.5278215408325
27.705357444,0.829711258411408,1.60139656066895,10.6881408691406
27.724916402,1.04745817184448,1.73300182819366,11.1020984649658
27.744474475,1.24845516681671,1.7712869644165,11.7050905227661
27.764031819,1.60498583316803,1.84546446800232,12.2985105514526
27.783589944,1.20777726173401,2.18524527549744,12.1956186294556
27.803148902,0.135792687535286,1.46739852428436,11.8319101333618
27.822706975,-0.696909606456757,-0.609571576118469,13.1742830276489
27.842264319,-0.328414916992188,-2.60757851600647,15.6484622955322
27.861822444,-0.290129750967026,-3.46181607246399,16.3160591125488
27.881381402,-0.888335406780243,-2.36590337753296,13.7318105697632
27.900939475,-1.46500563621521,-0.932602643966675,10.2454681396484
27.920496819,-1.39082813262939,0.129810631275177,7.09890651702881
27.940054944,-1.08693969249725,0.658624410629273,5.10807800292969
27.959613902,-1.14676022529602,0.653838813304901,4.96690177917481
27.979171975,-1.32622194290161,0.694516777992249,6.04845762252808
27.998729319,-1.64686024188995,0.692123949527741,7.03190755844116
28.018287392,-1.69471669197083,0.735194742679596,7.82871770858765
28.037846402,-1.46261286735535,0.646660327911377,8.38145923614502
28.057404475,-1.13718891143799,0.579661309719086,8.52742195129395
28.076961767,-0.725623488426209,0.682552635669708,8.70688343048096
28.096519892,-0.558125853538513,0.857228696346283,8.83370304107666
28.11607885,-0.550947427749634,1.03908324241638,9.10409164428711
28.135636923,-0.550947427749634,1.11086785793304,9.42233753204346
28.155194267,-0.704088091850281,1.28315114974976,9.71426200866699
28.17475234,-0.744766056537628,1.47936260700226,9.37448120117188
28.19431135,-0.4648058116436,1.67078840732574,9.04666423797607
28.213869371,-0.206380948424339,1.69710946083069,8.90309524536133
28.233426715,-0.311665147542954,1.69710946083069,9.74536800384522
28.25298484,-0.419342160224915,1.87657117843628,10.5900344848633
28.272543798,-0.577268481254578,2.09910368919373,10.982458114624
28.292101819,-0.603589534759522,2.00578355789185,11.202597618103
28.311659163,-0.388235479593277,1.52004063129425,11.985050201416
28.331217288,-0.184845551848412,0.972084224224091,12.4181509017944
28.350776246,-0.572482824325562,0.718445003032684,12.3224382400513
28.370334319,-0.644267499446869,0.476769924163818,12.367901802063
28.38989161,0.473180681467056,0.503090977668762,11.9706935882568
28.409449735,1.62173557281494,0.957727253437042,10.5852489471436
28.429008694,1.83708953857422,1.5056836605072,9.03948593139648
28.448566715,1.18145620822907,1.8406788110733,8.28335380554199
28.468124058,1.17188489437103,1.53679037094116,8.56331443786621
28.487682183,1.28195476531982,0.76151579618454,8.67099094390869
28.50724109,0.195613250136375,0.0388833694159985,9.82433128356934
28.526799163,-1.06779706478119,-0.482751965522766,11.4777717590332
28.546356454,-1.48893392086029,-0.949352383613586,12.3391885757446
28.565914579,-1.29990088939667,-0.985244750976563,11.7409820556641
28.585473538,-1.15393877029419,-0.564107954502106,10.3603239059448
28.60503161,-0.972084224224091,-0.166899383068085,9.07298564910889
28.624588902,-0.646660327911377,0.223130717873573,8.46520805358887
28.644146975,-0.333200544118881,0.531804859638214,8.09192752838135
28.663705933,-0.347557485103607,0.684945464134216,7.98664379119873
28.683264006,-0.696909606456757,0.687338292598724,8.31446075439453
28.702821298,-0.952941596508026,0.735194742679596,8.77388286590576
28.722379423,-0.553340256214142,0.7232306599617,8.99880790710449
28.741938381,0.233898416161537,0.799800992012024,8.44845867156982
28.761496402,0.851246654987335,0.919442117214203,7.99621486663818
28.781053694,1.05702936649323,1.02233350276947,8.22592639923096
28.800611819,0.884746193885803,1.12761771678925,8.72124004364014
28.820170777,0.217148661613464,1.65164577960968,9.38883781433106
28.839728798,-0.168095797300339,2.5106692314148,9.66640567779541
28.85928609,-0.105882398784161,2.72123765945435,9.65444087982178
28.878844215,-0.211166605353355,2.4987051486969,9.79083251953125
28.898403173,-0.263808697462082,2.01296210289001,10.5469636917114
28.917961194,-0.0556331276893616,0.885942578315735,12.0759773254395
28.937518485,-0.0867398232221603,0.184845551848412,13.5571346282959
28.95707661,0.064008004963398,0.0987039357423782,13.5643129348755
28.976635517,0.133399859070778,0.644267499446869,12.8033962249756
28.99619359,-0.416949331760407,1.12043917179108,11.9706935882568
29.015750881,-0.931406199932098,1.07976126670837,11.8701953887939
29.035308954,-0.826122045516968,0.144167557358742,11.7026977539063
29.054867913,-0.871585667133331,-0.762712240219116,11.422737121582
29.074425933,-1.13479614257813,-0.990030348300934,10.4943218231201
29.093983225,-1.44586312770844,-0.547358155250549,9.34098148345947
29.11354135,-1.39322102069855,-0.138185501098633,8.7978105545044
29.133100256,-1.11086785793304,-0.0257228426635265,8.80259609222412
29.152658329,-0.799800992012024,0.00538385100662708,8.92941570281982
29.172215621,-0.924227774143219,0.180059909820557,8.98445129394531
29.191773694,-1.10847508907318,0.318843603134155,9.07537841796875
29.211332652,-0.988833963871002,0.498305320739746,9.27158927917481
29.230890673,-0.172881439328194,0.47437709569931,9.09691333770752
29.250447965,0.78903329372406,0.50548380613327,8.22114086151123
29.27000609,1.00199449062347,0.7926225066185,7.39083099365234
29.289564996,0.645463883876801,1.23529469966888,7.63250589370728
29.309123017,0.166899383068085,1.73778748512268,8.38145923614502
29.328680308,-0.596411049365997,2.01056933403015,9.1112699508667
29.348238433,-1.182652592659,1.94835579395294,9.43430137634277
29.36779734,-1.17308127880096,1.56789708137512,9.19262599945068
29.38735536,-0.890728235244751,1.141974568367,9.62094211578369
29.406912652,-0.60598236322403,1.08215403556824,10.3268241882324
29.426470777,-0.536590456962585,1.19700956344605,10.4321088790894
29.446029683,-0.6801598072052,1.95553433895111,10.2239332199097
29.465587704,-0.785444021224976,2.6087749004364,9.92004489898682
29.485144996,-0.689731121063232,2.62791752815247,10.097113609314
29.504703121,-0.783051192760468,1.90049934387207,10.8077812194824
29.524262027,-1.25922286510468,0.996012449264526,12.0424785614014
29.543820048,-0.957727253437042,0.369092881679535,12.7387895584106
29.56337734,-0.139381915330887,0.756730139255524,11.7361965179443
29.582935413,0.449252456426621,1.63011038303375,10.0420780181885
29.602494371,0.504287362098694,1.90289223194122,9.02034282684326
29.622052392,0.28175488114357,0.955334424972534,9.39362335205078
29.641609683,-0.153738856315613,-0.207577362656593,10.8293170928955
29.661167756,-0.333200544118881,-0.650249540805817,11.6500549316406
29.680726663,-0.601196706295013,-0.437288343906403,11.0518493652344
29.700284683,-0.584446907043457,-0.336789786815643,10.1306133270264
29.719841975,0.0137587301433086,-0.449252456426621,9.99182891845703
29.739400048,0.585643351078033,-0.52821558713913,9.934401512146
29.758959006,0.442073971033096,-0.257826626300812,10.1162557601929
29.778517027,0.176470667123795,0.196809664368629,10.2885389328003
29.798074319,0.193220421671867,0.419342160224915,9.86979484558106
29.817632392,0.0137587301433086,0.687338292598724,9.30987453460693
29.837191298,-0.227916359901428,1.01754784584045,8.82652473449707
29.856749319,-0.0197407864034176,1.18743824958801,8.55852794647217
29.87630661,0.284147679805756,1.29990088939667,8.07996368408203
29.895864683,0.214755833148956,1.42193484306335,7.82871770858765
29.91542359,0.0592223592102528,1.58225393295288,7.84068155288696
29.93498161,-0.120239339768887,1.68753814697266,8.22592639923096
29.954538902,-0.117846518754959,1.78803670406342,8.65902709960938
29.974096975,0.0137587301433086,1.95314145088196,8.85523796081543
29.993655933,0.0568295381963253,2.14696002006531,9.09212779998779
30.013213954,0.0879362300038338,2.16131711006165,9.412766456604
30.032771194,-0.314057976007462,2.15413856506348,10.235897064209
30.052329267,-0.460020154714584,2.33838582038879,11.3868446350098
30.071888173,0.377467781305313,2.39581370353699,11.2935247421265
30.091446194,1.11206436157227,2.21395921707153,10.4440727233887
30.111003485,0.26979073882103,2.14217448234558,10.0085792541504
30.130561558,-0.881156921386719,2.27138686180115,10.5110712051392
30.150120465,-0.407378047704697,2.2163519859314,11.2983102798462
30.169678485,0.384646236896515,2.03449749946594,11.0566349029541
30.189235777,0.320040017366409,1.98185539245605,10.5876417160034
30.20879385,-0.950548768043518,1.15633153915405,11.3174524307251
30.228352756,-2.08713960647583,-0.150149613618851,13.253246307373
30.247910777,-1.64207458496094,-0.80817586183548,14.1098766326904
30.267468069,-0.716052174568176,-0.466002196073532,12.1357984542847
30.287026142,-0.704088091850281,0.192024022340775,9.81715297698975
30.306585048,-1.01276218891144,0.302093863487244,8.80977439880371
30.326143069,-0.857228696346283,0.0125623187050223,8.63509845733643
30.345700308,-0.570089995861054,-0.26979073882103,8.81216716766357
30.365258381,-0.400199592113495,-0.262612283229828,8.98923683166504
30.384817288,-0.323629260063171,0.101096756756306,8.77388286590576
30.404375308,-0.25663024187088,0.634696185588837,8.16131973266602
30.4239326,-0.158524498343468,1.07258272171021,7.63250589370728
30.443490673,-0.127417802810669,1.182652592659,7.4339017868042
30.463049579,-0.129810631275177,1.11565351486206,8.07039260864258
30.4826076,-0.108275227248669,1.10368943214417,8.7978105545044
30.50216484,-0.218345060944557,1.19461667537689,9.15194797515869
30.521722913,-0.397806763648987,1.44107747077942,9.19980525970459
30.541281819,-0.570089995861054,1.67796683311462,8.8648099899292
30.56083984,-0.893121063709259,2.00339078903198,8.65424156188965
30.580397079,-1.12522482872009,2.03689026832581,8.68534755706787
30.599955152,-1.13001048564911,1.93160605430603,8.76191806793213
30.619514058,-0.976869821548462,1.8406788110733,9.29073238372803
30.639072079,-0.99122679233551,1.89571368694305,9.66640567779541
30.658629319,-0.713659346103668,2.09910368919373,9.86740207672119
30.678187392,0.169292196631432,2.16370987892151,10.276575088501
30.697746298,1.03788685798645,1.93639171123505,11.5423784255981
30.717304319,1.14317107200623,1.4362918138504,12.935001373291
30.736861558,0.561715126037598,1.17786693572998,15.0646133422852
30.756419631,0.911067247390747,0.620339274406433,15.4546432495117
30.775978538,1.19581305980682,0.704088091850281,12.8847513198853
30.795536558,1.17667055130005,1.24965167045593,9.85783100128174
30.815093798,0.992423176765442,1.19940233230591,8.77866840362549
30.834651871,1.29152607917786,0.254237413406372,10.0181503295898
30.854210777,1.6648063659668,-0.229112774133682,10.6618194580078
30.873768798,1.31545424461365,-0.231505587697029,9.81476020812988
30.893326038,0.717248558998108,0.14656038582325,8.67577648162842
30.91288411,0.664606511592865,0.366700083017349,7.8717885017395
30.932443017,0.652642369270325,0.0963111147284508,8.38145923614502
30.952001038,0.506680190563202,-0.346361070871353,9.72622585296631
30.971558277,0.415752947330475,-0.628714144229889,10.8699951171875
30.99111635,0.365503668785095,-0.535394072532654,10.9489583969116
31.010675256,0.406181633472443,-0.0592223592102528,9.88175964355469
31.030233277,0.396610349416733,0.527019202709198,8.7379903793335
31.049790517,0.420538574457169,1.08933246135712,7.92921590805054
31.06934859,0.451645284891129,1.37647128105164,7.70429086685181
31.088907496,0.456430912017822,1.42911326885223,8.05364322662354
31.108465465,0.413360118865967,1.42193484306335,8.66859817504883
31.128022756,0.348753899335861,1.49132668972015,8.86720275878906
31.147580777,0.442073971033096,1.86699986457825,8.30967521667481
31.167139683,0.623928487300873,2.25942277908325,7.70907640457153
31.186697704,0.669392108917236,2.35035014152527,8.10628509521484
31.206254996,0.52821558713913,2.13021039962769,8.94377326965332
31.225813017,0.750748097896576,1.74496591091156,9.52522850036621
31.245371923,0.901495933532715,1.48414826393127,10.4057874679565
31.264929944,0.710070133209229,1.52482628822327,11.0566349029541
31.284487235,0.906281590461731,1.70668077468872,11.2959175109863
31.304045256,1.22452700138092,1.78564393520355,11.0087785720825
31.323604163,1.45184516906738,1.65403866767883,10.676176071167
31.343162183,1.20538437366486,1.43150615692139,11.1451692581177
31.362719475,0.987637519836426,1.34536457061768,12.2410821914673
31.382277548,1.13599252700806,1.59900367259979,12.26979637146
31.401836454,1.18384897708893,2.17806673049927,11.626127243042
31.421394423,0.712462961673737,2.32881474494934,11.0039930343628
31.440951715,-0.0843469947576523,0.594018220901489,12.0951204299927
31.460509788,-1.07018995285034,-0.91346001625061,13.8729877471924
31.480068694,-0.436091929674149,-1.16949212551117,13.0857486724854
31.499626715,0.288933336734772,-0.650249540805817,10.1401844024658
31.519184006,0.00179461692459881,0.297308206558228,8.65902709960938
31.538742027,-0.529412031173706,0.7926225066185,8.73320484161377
31.558300985,-0.830907642841339,0.617946445941925,8.83609580993652
31.577859006,-1.01036942005157,0.488734036684036,8.91984462738037
31.597416246,-0.854835867881775,0.51266223192215,8.87198829650879
31.616974319,-0.594018220901489,0.845264613628388,8.4293155670166
31.636533277,-0.450448870658875,1.29032957553864,7.48893690109253
31.656091298,-0.122632160782814,1.63489603996277,6.61316347122192
31.675648538,0.236291229724884,1.7712869644165,6.07956409454346
31.69520661,0.365503668785095,1.76889419555664,6.6418776512146
31.714765569,0.413360118865967,1.58464682102203,8.10149955749512
31.73432359,0.399003177881241,1.57028985023499,9.21416187286377
31.753880881,-0.0221336092799902,1.66839563846588,9.88175964355469
31.773438954,-0.436091929674149,1.79282236099243,10.3100748062134
31.79299786,-0.395413935184479,1.63968169689178,10.2670040130615
31.812555881,-0.268594354391098,1.55354011058807,10.3651094436646
31.832113173,-0.158524498343468,1.84785723686218,10.6498556137085
31.851671246,-0.21595224738121,2.38145685195923,10.594820022583
31.871230204,-0.400199592113495,2.82891464233398,10.5661067962646
31.890788225,-0.263808697462082,2.89352083206177,10.798210144043
31.910345517,0.174077853560448,2.31924343109131,10.594820022583
31.929903642,0.253040999174118,1.63968169689178,10.6809616088867
31.949462548,0.0783649384975433,1.30707931518555,11.3102741241455
31.969020569,0.272183567285538,1.80478644371033,11.8175525665283
31.98857786,0.367896467447281,2.21395921707153,11.7457685470581
32.008135985,0.315254390239716,1.93639171123505,12.286545753479
32.027694944,0.420538574457169,1.08215403556824,12.6765766143799
32.047252965,-0.029312077909708,-0.0927218794822693,12.9445724487305
32.066810256,-0.881156921386719,-0.908674418926239,13.4542436599731
32.086368329,-0.14656038582325,-0.882353365421295,12.0376920700073
32.105927288,1.06899356842041,-0.219541475176811,9.07537841796875
32.12548536,1.7222341299057,0.658624410629273,6.94337320327759
32.145042652,1.76530492305756,1.09172534942627,5.91445922851563
32.164600725,1.59780728816986,0.862014353275299,6.50309371948242
32.184159683,1.51166570186615,0.259023040533066,7.97467947006226
32.203717756,1.4279168844223,-0.109471634030342,9.09691333770752
32.223275048,1.12402844429016,-0.198006078600883,9.65444087982178
32.242833173,0.872782051563263,0.0388833694159985,9.59701347351074
32.262392079,0.860817968845367,0.393021106719971,9.13519859313965
32.281950152,0.705284476280212,0.811765074729919,8.80259609222412
32.301507496,0.296111792325974,1.21854496002197,8.72602558135986
32.321065569,0.229112774133682,1.5176477432251,8.49870777130127
32.340624527,0.827318429946899,1.63011038303375,8.37667369842529
32.3601826,1.40877437591553,1.59182524681091,8.41735172271729
32.379739892,1.53320109844208,1.79282236099243,8.503493309021
32.399298017,1.45902359485626,2.02731895446777,8.6039924621582
32.418856975,1.3992030620575,2.03689026832581,9.06341361999512
32.438415048,1.3010972738266,1.84546446800232,9.88415241241455
32.45797234,1.20777726173401,1.86460709571838,10.4751796722412
32.477530465,1.38963174819946,2.05842566490173,10.618748664856
32.497089423,1.13120687007904,2.60638213157654,10.4536437988281
32.516647496,0.470787853002548,2.8576283454895,10.5493564605713
32.53620484,0.217148661613464,2.41495633125305,11.1044912338257
32.555762913,0.911067247390747,1.90767788887024,11.9922285079956
32.575321923,1.2317054271698,1.89332091808319,12.0759773254395
32.594879944,0.851246654987335,1.80239367485046,11.2121686935425
32.614437288,0.116650104522705,0.594018220901489,11.5184497833252
32.633995413,0.238684058189392,-1.46620202064514,13.5044927597046
32.653554371,0.812961518764496,-2.62672114372253,15.1866474151611
32.673112444,0.276969224214554,-2.73679089546204,14.8420810699463
32.692669788,-0.560518682003021,-1.23649108409882,12.0544424057007
32.712227913,-0.919442117214203,-0.178863495588303,9.36969566345215
32.731786871,-0.744766056537628,0.471984267234802,7.67318391799927
32.751344944,-0.658624410629273,0.620339274406433,7.25204706192017
32.770902288,-0.766301453113556,0.562911510467529,7.87657403945923
32.790460413,-0.919442117214203,0.546161770820618,8.60877799987793
32.810019371,-0.964905738830566,0.696909606456757,8.98445129394531
32.829577444,-0.821336388587952,0.783051192760468,8.73320484161377
32.849134788,-0.567697167396545,0.816550731658936,8.29531764984131
32.868692913,-0.337986201047897,1.00079810619354,8.01057243347168
32.888251923,-0.148953214287758,1.42672049999237,7.58464956283569
32.907809996,-0.0436690114438534,1.89332091808319,7.15154886245728
32.92736734,0.0257228426635265,2.09192514419556,7.22811889648438
32.946925465,0.12143574655056,2.03689026832581,7.69232654571533
32.966484423,0.236291229724884,1.69710946083069,8.25463962554932
32.986042496,-0.26620152592659,1.44347023963928,9.11844921112061
33.00559984,-1.0319048166275,1.41714918613434,10.0205430984497
33.025158069,-1.39082813262939,1.53679037094116,10.6331052780151
33.044716975,-1.49850523471832,1.69710946083069,11.0973129272461
33.064275048,-1.21854496002197,1.90049934387207,11.5232353210449
33.083832392,-0.562911510467529,2.33838582038879,11.4299154281616
33.103390517,0.0616151839494705,2.81216478347778,10.6833553314209
33.122949527,0.147756800055504,2.94855570793152,9.84825992584229
33.1425076,-0.376271367073059,2.91984176635742,9.46780109405518
33.162064944,-0.728016316890717,2.70209503173828,9.9679012298584
33.181623173,-0.0747757107019424,2.43649172782898,11.0016002655029
33.201182079,1.21495568752289,1.50089800357819,12.0400857925415
33.220740204,1.85623216629028,0.194416835904121,12.8081817626953
33.240297548,1.65762794017792,-0.760319411754608,13.2460680007935
33.259855673,1.23409831523895,-1.38245332241058,13.0713920593262
33.279414631,0.820139944553375,-1.20059871673584,11.6979112625122
33.298972756,0.923031330108643,-0.255433827638626,9.94636535644531
33.3185301,1.48295187950134,0.998405277729034,8.07757091522217
33.338088225,2.05005073547363,1.74018025398254,6.30209684371948
33.357647235,1.99023020267487,1.59182524681091,5.58664274215698
33.377205308,0.829711258411408,0.625124931335449,6.47198724746704
33.396762652,-0.651445984840393,-0.233898416161537,9.54437160491943
33.416320881,-1.27836549282074,-0.72681987285614,12.3726873397827
33.435879788,-0.577268481254578,-0.666999340057373,12.5976133346558
33.455437913,0.2410768866539,-0.0616151839494705,10.9752788543701
33.474995256,0.707677304744721,0.713659346103668,9.19023323059082
33.494553381,1.12642121315002,1.23768746852875,7.88375234603882
33.514112392,1.21256291866303,1.56071853637695,7.82871770858765
33.533670465,0.652642369270325,1.58943247795105,8.69252681732178
33.553227808,0.410967290401459,1.20418798923492,9.46780109405518
33.572786038,0.54017972946167,0.936191856861115,9.57547760009766
33.592344996,0.860817968845367,1.15154588222504,9.23569679260254
33.611903069,0.887139022350311,1.57028985023499,8.37428092956543
33.631460413,0.856032311916351,1.86939263343811,8.18046283721924
33.651018642,0.923031330108643,1.91246354579926,8.82173919677734
33.670577548,0.96370929479599,2.06321144104004,9.44387245178223
33.690135673,1.09770739078522,2.09192514419556,9.98465061187744
33.709693017,1.23409831523895,1.84785723686218,10.5254287719727
33.729251142,1.14556384086609,1.39082813262939,11.2624177932739
33.748810152,1.06660068035126,1.00797653198242,11.9754791259766
33.768368225,1.27477622032166,1.14676022529602,12.5497570037842
33.787925621,1.41595280170441,1.35493576526642,12.229118347168
33.807483746,1.08813607692719,1.37647128105164,12.0616207122803
33.827042756,0.20039889216423,0.948155999183655,12.0855493545532
33.846600829,-0.620339274406433,0.292522579431534,12.0065860748291
33.866158225,-0.996012449264526,-0.399003177881241,12.1764764785767
33.88571635,-1.00319087505341,-0.834496915340424,12.1908330917358
33.90527536,-0.826122045516968,-0.879960536956787,11.2456684112549
33.924833433,-0.725623488426209,-0.463609397411346,9.85065269470215
33.944390777,-0.974476993083954,-0.293718993663788,8.89830875396729
33.963949006,-1.08693969249725,-0.209970191121101,8.72124004364014
33.983507913,-0.802193820476532,-0.0807577669620514,8.99402236938477
34.003066038,-0.345164656639099,0.349950313568115,8.5704927444458
34.022623381,-0.0843469947576523,0.909870803356171,7.64686298370361
34.04218161,-0.220737889409065,1.45543432235718,6.97208690643311
34.061740517,-0.366700083017349,1.81435775756836,6.65862703323364
34.081298642,-0.211166605353355,1.87896394729614,6.86919546127319
34.100855985,-0.0125623187050223,1.72343051433563,7.41954469680786
34.12041411,-0.160917326807976,1.69710946083069,7.85982418060303
34.139973121,-0.51266223192215,1.82632184028625,8.37188816070557
34.159531194,-0.625124931335449,2.09910368919373,8.73320484161377
34.17908859,-0.570089995861054,2.39342093467712,8.84566688537598
34.198646715,-0.687338292598724,2.41017055511475,9.01077175140381
34.218205725,-0.888335406780243,2.13978171348572,9.453444480896
34.237763798,-0.988833963871002,1.82632184028625,10.374680519104
34.257321142,-1.28554391860962,1.78803670406342,11.4729862213135
34.276879371,-1.66600275039673,2.01535487174988,11.4083805084229
34.296438277,-1.61336064338684,2.07278251647949,10.6331052780151
34.315996402,-1.07018995285034,1.63728892803192,9.9535436630249
34.335553746,-0.282951265573502,1.02472627162933,10.235897064209
34.355111871,-0.065204419195652,0.854835867881775,10.9872436523438
34.374670881,0.0305084884166718,1.32622194290161,10.9202442169189
34.394228954,1.05224370956421,2.37427830696106,10.1473627090454
34.41378635,2.49750852584839,2.57048964500427,9.18784046173096
34.433344475,3.78724002838135,1.54875445365906,10.1976118087769
34.452903485,3.35174632072449,0.766301453113556,12.1214408874512
34.472461558,1.44705951213837,0.00538385100662708,13.4590291976929
34.492018902,-0.0699900612235069,-0.150149613618851,13.9328079223633
34.511577027,0.224327117204666,0.0508474819362164,12.4157581329346
34.531136038,0.628714144229889,0.486341208219528,10.2646112442017
34.55069411,0.403788834810257,0.77347993850708,8.94377326965332
34.570251454,-0.26620152592659,0.940977513790131,8.53938579559326
34.589809683,-0.768694281578064,0.957727253437042,8.69491958618164
34.60936859,-0.608375132083893,0.859621524810791,8.52742195129395
34.628926715,0.00179461692459881,0.859621524810791,7.73779010772705
34.648484058,0.377467781305313,0.99122679233551,6.72801923751831
34.668042183,0.46839502453804,1.07497560977936,6.13938474655151
34.687601194,0.312861561775208,1.1132607460022,6.55812883377075
34.707159267,0.209970191121101,1.12761771678925,7.77846813201904
34.72671661,0.272183567285538,1.12043917179108,8.8648099899292
34.74627484,-0.0149551415815949,1.28554391860962,9.64965534210205
34.765833746,-0.237487643957138,1.52482628822327,10.1856479644775
34.785391871,0.133399859070778,1.36450707912445,10.5278215408325
34.804949215,0.702891647815704,1.39561378955841,10.7336044311523
34.82450734,1.00199449062347,1.73778748512268,10.4680004119873
34.844066298,0.867996394634247,2.05603289604187,10.1258268356323
34.863624423,0.698105990886688,2.07517552375793,10.3675022125244
34.883181767,1.15034949779511,1.82392907142639,10.7288188934326
34.902739892,1.6648063659668,1.67796683311462,10.7671041488647
34.922298902,1.47098767757416,1.3668999671936,10.9202442169189
34.941856975,0.394217520952225,0.570089995861054,11.1308126449585
34.961414319,0.0735792964696884,0.448056042194366,11.1882400512695
34.980972444,0.346361070871353,1.50807642936707,10.7838535308838
35.000531454,0.619142830371857,2.15653133392334,10.1114702224731
35.020089527,0.628714144229889,1.60139656066895,9.79801082611084
35.039646871,0.867996394634247,-0.655035197734833,10.073184967041
35.0592051,0.181256309151649,-2.13619232177734,11.5998058319092
35.078764006,-0.431306272745132,-2.26540493965149,12.571291923523
35.098322079,-0.385842651128769,-1.22213411331177,11.5423784255981
35.117879423,0.0568295381963253,-0.640678286552429,10.0109720230103
35.137437548,0.733998358249664,-0.607178747653961,9.68076229095459
35.156996558,0.604785919189453,-0.867996394634247,10.4368944168091
35.176554631,-0.0795613527297974,-0.946959555149078,10.9992074966431
35.196111975,-0.675374209880829,-0.544965386390686,10.7862462997437
35.2156701,-0.852443039417267,-0.109471634030342,10.2215404510498
35.23522911,-0.242273285984993,0.0819541737437248,10.0133647918701
35.254787183,0.437288343906403,0.187238365411758,9.47737216949463
35.274344527,0.485144793987274,0.672981381416321,8.06082153320313
35.293902652,0.169292196631432,1.32861483097076,7.43150901794434
35.313461663,-0.0221336092799902,1.85982143878937,7.40518808364868
35.333019735,0.0903290584683418,2.12542462348938,7.69950485229492
35.352577079,0.219541475176811,2.12542462348938,8.1158561706543
35.372135204,0.166899383068085,2.06321144104004,8.58963489532471
35.391694215,-0.170488610863686,1.7952151298523,9.33619594573975
35.411252288,-0.670588552951813,1.7952151298523,10.0803632736206
35.430809631,-0.756730139255524,2.17088842391968,10.3818588256836
35.450367756,-0.500698149204254,2.39820647239685,9.92004489898682
35.469926715,-0.416949331760407,2.16849541664124,9.33858871459961
35.48948484,-0.629910588264465,1.79042959213257,8.7978105545044
35.509042131,-0.957727253437042,1.40039944648743,8.75952529907227
35.528600256,0.0400797799229622,1.80000078678131,9.64726257324219
35.548159267,1.26759779453278,2.2331018447876,9.95115089416504
35.56771734,1.47816622257233,1.96749842166901,10.4368944168091
35.587274683,0.640678286552429,1.44107747077942,12.8010025024414
35.606832808,-0.184845551848412,-0.212363004684448,15.6029977798462
35.626391767,0.437288343906403,-1.3872389793396,17.0889415740967
35.645949892,0.990030348300934,-1.14795660972595,14.684154510498
35.665507183,1.13359975814819,0.0340977236628532,11.3629169464111
35.685065308,1.35613226890564,0.830907642841339,9.13280582427979
35.704624319,1.51166570186615,0.993619620800018,8.31924629211426
35.724182392,1.49970161914825,0.603589534759522,8.65184879302979
35.743739735,1.46620202064514,0.122632160782814,9.09691333770752
35.76329786,1.31306147575378,-0.12143574655056,9.18305492401123
35.782856819,1.01874423027039,-0.0376869551837444,9.08734226226807
35.802414892,0.724427044391632,0.302093863487244,8.56331443786621
35.821972235,0.568893611431122,0.771087110042572,7.78325366973877
35.84153036,0.454038083553314,1.29272246360779,7.02233648300171
35.861089319,-0.017347963526845,1.7138592004776,6.94098043441773
35.880647392,-0.318843603134155,1.82153618335724,7.55593585968018
35.900204735,-0.00299102836288512,1.68993103504181,7.81675338745117
35.91976286,0.461216568946838,1.64925301074982,7.78564691543579
35.939321819,0.733998358249664,2.00339078903198,7.64925575256348
35.958879892,0.645463883876801,2.37427830696106,7.77368259429932
35.978437235,0.521037101745606,2.41974186897278,8.55374240875244
35.99799536,0.623928487300873,2.19481658935547,9.4390869140625
