Time (s),Gyroscope x (rad/s),Gyroscope y (rad/s),Gyroscope z (rad/s)
0.060007882,-0.0636808276176453,0.00122169451788068,0.0383306667208672
0.079566112,-0.0673459097743034,-0.0317640565335751,0.0322221927344799
0.099125226,-0.0600157417356968,-0.00610847258940339,0.0297788046300411
0.118683455,-0.0612374395132065,0.0390942245721817,0.057877779006958
0.138240955,-0.108883522450924,-0.0134386401623487,0.0542126931250095
0.157799184,-0.154086217284203,-0.116060979664326,-0.0142021989449859
0.177358299,-0.127208948135376,-0.120947755873203,-0.0813953951001167
0.196916528,-0.0368035472929478,-0.0488677807152271,-0.108272679150105
0.216474028,0.0487150698900223,0.025655584409833,-0.110716067254543
0.236032257,0.0707055702805519,0.045202698558569,-0.103385895490646
0.255591372,0.0108425384387374,-0.00366508355364203,-0.0850604772567749
0.275149601,-0.0551289655268192,-0.0745233669877052,-0.0752869248390198
0.294707049,-0.128430634737015,-0.122169449925423,-0.0899472609162331
0.31426533,-0.162638083100319,-0.151490122079849,-0.130263179540634
0.333824445,-0.103996746242046,-0.19180603325367,-0.173022478818893
0.353382674,-0.072232685983181,-0.194249421358109,-0.165692314505577
0.372940122,-0.0771194696426392,-0.19180603325367,-0.109494373202324
0.392498403,-0.0416903272271156,-0.161263674497604,-0.0777303129434586
0.412057518,-0.0160347409546375,-0.0965138673782349,-0.0642916709184647
0.431615747,-0.0539072714745998,-0.0965138673782349,-0.0594048947095871
0.451173247,-0.049020491540432,-0.10628741979599,-0.0899472609162331
0.470731476,0.0364981219172478,-0.0635281130671501,-0.0752869248390198
0.490290591,0.104913018643856,-0.14782503247261,-0.019088976085186
0.50984882,0.0926960706710815,-0.153933510184288,0.0310004986822605
0.52940632,0.119573347270489,-0.0146603342145681,0.0407740548253059
0.548964601,0.124460130929947,0.0904053971171379,0.0652079433202744
0.568523716,0.0658187940716744,0.164928764104843,0.0823116675019264
0.588081945,-0.0587940476834774,0.185697570443153,0.0945286154747009
0.607639393,-0.111326910555363,0.0745233669877052,0.0762031972408295
0.627197674,0.0145076224580407,-0.0415376126766205,0.0322221927344799
0.646756789,0.20264858007431,-0.00855186209082604,0.0212269425392151
0.666315018,0.295497357845306,-0.0146603342145681,0.118962503969669
0.685872518,0.300384134054184,-0.17103722691536,0.335202425718308
0.705430799,0.250294655561447,-0.205244675278664,0.431716293096542
0.724989914,0.176992997527123,-0.100178949534893,0.26556584239006
0.744548143,0.134233683347702,0.0268772803246975,0.0920852273702622
0.764105591,0.0389415137469769,0.109952509403229,0.0236703306436539
0.783663872,-0.143090963363647,0.0855186134576798,0.00778830237686634
0.803223039,-0.292137712240219,-0.0183254182338715,-0.0264191441237927
0.822781268,-0.28847262263298,-0.103844031691551,-0.0911689549684525
0.842338716,-0.13820418715477,-0.0635281130671501,-0.0997208133339882
0.861896997,-0.0661242157220841,-0.0146603342145681,0.00900999736040831
0.881456164,-0.0930014923214912,-0.045202698558569,0.121405892074108
0.901014341,-0.0636808276176453,-0.0549762547016144,0.106745555996895
0.920571841,0.0108425384387374,-0.0207688063383102,0.049325916916132
0.940130122,-0.0294733811169863,0.0219905003905296,0.0688730254769325
0.959689237,-0.201732307672501,0.0207688063383102,0.103080473840237
0.979247466,-0.289694309234619,-0.0244338903576136,0.081089973449707
0.998804966,-0.28602921962738,-0.118504367768765,0.0126750804483891
1.018363247,-0.254265159368515,-0.0745233669877052,-0.0105371149256825
1.037922414,-0.210284173488617,0.076966755092144,0.109188944101334
1.057480643,-0.147977754473686,0.0806318372488022,0.239910259842873
1.077038091,-0.0649025216698647,-0.0879620015621185,0.231358394026756
1.096596372,-0.0245866030454636,-0.180810794234276,0.151948258280754
1.116155539,-0.0306950751692057,-0.0879620015621185,0.132401138544083
1.135713768,-0.00381779531016946,0.0488677807152271,0.194707557559013
1.155271268,0.0755923464894295,0.120947755873203,0.220363155007362
1.174829549,0.14034216105938,0.144159957766533,0.194707557559013
1.194388664,0.156224191188812,0.210131451487541,0.206924512982368
1.213946893,0.0132859274744987,0.23456534743309,0.248462125658989
1.233504393,-0.174855023622513,0.100178949534893,0.228915005922318
1.253062674,-0.11743538826704,-0.0488677807152271,0.128736063838005
1.272621841,0.163554355502129,-0.0476460866630077,-0.0178672820329666
1.29218007,0.405449867248535,-0.0158820282667875,-0.105829291045666
1.31173757,0.522732555866242,-0.00610847258940339,-0.0850604772567749
1.331295851,0.517845749855042,0.0427593067288399,-0.0215323660522699
1.350854966,0.361468851566315,0.112395897507668,0.0285571087151766
1.370413195,0.104913018643856,0.168593838810921,0.087198443710804
1.389970695,-0.199288919568062,0.21257483959198,0.167830288410187
1.409528976,-0.422859013080597,0.162485376000404,0.260679066181183
1.429088143,-0.369104444980621,0.0207688063383102,0.269230931997299
1.448646372,-0.122322164475918,-0.0146603342145681,0.183712318539619
1.468203872,0.0572669319808483,0.0561979487538338,0.0847550556063652
1.487762153,0.0352764278650284,0.161263674497604,-0.0178672820329666
1.50732132,-0.057572353631258,0.173480615019798,-0.0984991192817688
1.526879549,-0.111326910555363,0.0781884491443634,-0.166914016008377
1.546437049,-0.151642829179764,-0.0464243926107883,-0.207229927182198
1.56599533,-0.144312664866447,-0.0720799788832665,-0.220668569207191
1.585554497,-0.0661242157220841,0.0464243926107883,-0.209673315286636
1.605112726,-0.0270299911499023,0.113617591559887,-0.153475373983383
1.624670226,-0.0820062458515167,0.0134386401623487,-0.066735066473484
1.644228507,-0.143090963363647,-0.133164703845978,-0.00198525353334844
1.663787674,-0.11743538826704,-0.219905018806458,-0.030084228143096
1.683345903,-0.0710109919309616,-0.23334364593029,-0.0606265887618065
1.702903403,-0.0820062458515167,-0.226013481616974,-0.0386360883712769
1.722461684,-0.119878776371479,-0.250447362661362,-0.0178672820329666
1.742020799,-0.122322164475918,-0.285876512527466,-0.0557398125529289
1.76157908,-0.0881147161126137,-0.342074453830719,-0.113159455358982
1.78113658,-0.113770298659801,-0.438588321208954,-0.20234315097332
1.800694862,-0.212727561593056,-0.552205920219421,-0.192569598555565
1.820254028,-0.184628590941429,-0.51188999414444,-0.030084228143096
1.839812257,0.0670404881238937,-0.285876512527466,0.0590994730591774
1.859369757,0.383459359407425,-0.179589092731476,0.00412321882322431
1.878928039,0.483638316392899,0.0158820282667875,0.0248920265585184
1.898487205,0.151337414979935,0.284654825925827,0.100637085735798
1.918045434,-0.348335653543472,0.249225676059723,0.0456608310341835
1.937602934,-0.393538355827332,-0.0207688063383102,-0.121711313724518
1.957161216,0.164776042103767,-0.045202698558569,-0.273201435804367
1.976720382,0.812274158000946,0.172258928418159,-0.2903051674366
1.996278612,1.14335334300995,0.266329407691956,-0.22311195731163
2.015836112,1.0737167596817,0.271216183900833,-0.159583851695061
2.035394393,0.698656558990479,0.269994497299194,-0.09605573117733
2.054953559,0.146450623869896,0.196692824363709,-0.0117588099092245
2.074511789,-0.381321400403976,0.0427593067288399,0.0481042228639126
2.094069289,-0.668419599533081,-0.0623064190149307,0.0590994730591774
2.11362757,-0.608556568622589,-0.0500894747674465,0.0322221927344799
2.133186737,-0.322680056095123,0.076966755092144,0.0310004986822605
2.152744966,-0.0551289655268192,0.229678571224213,0.0945286154747009
2.172302466,0.0572669319808483,0.21501824259758,0.149504870176315
2.191860799,0.0560452342033386,0.0891837030649185,0.114075727760792
2.211419914,0.0499367639422417,-0.0390942245721817,0.0419957488775253
2.230978143,0.0719272643327713,-0.0952921733260155,0.0212269425392151
2.250535643,0.0743706524372101,-0.0940704792737961,0.0615428611636162
2.270093976,-0.000152711814735085,-0.152711808681488,0.129957750439644
2.289653091,-0.198067218065262,-0.216239929199219,0.182490617036819
2.309211372,-0.398425132036209,-0.216239929199219,0.228915005922318
2.328768872,-0.447292894124985,-0.163707062602043,0.26556584239006
2.348327153,-0.257930248975754,-0.217461630702019,0.255792289972305
2.367886268,0.146450623869896,-0.375060230493546,0.222806543111801
2.387444549,0.487303406000137,-0.221126705408096,0.132401138544083
2.407002049,0.46286952495575,0.0928487852215767,0.0395523607730866
2.42656033,0.174549609422684,0.208909764885902,-0.0313059203326702
2.446119497,-0.0172564350068569,0.0818535313010216,-0.136371657252312
2.465677726,0.100026234984398,-0.0476460866630077,-0.209673315286636
2.485235226,0.388346135616303,0.0500894747674465,-0.215781792998314
2.504793507,0.576487123966217,0.328635811805725,-0.154697075486183
2.524352674,0.429883748292923,0.552205920219421,-0.0068720318377018
2.543910903,-0.0416903272271156,0.643832981586456,0.13850961625576
2.563468403,-0.321458369493485,0.436144948005676,0.147061482071877
2.583026684,-0.00748287886381149,0.116060979664326,0.0566560849547386
2.602585851,0.523954212665558,0.045202698558569,0.0114533863961697
2.62214408,0.644901990890503,0.138051480054855,0.120184198021889
2.64170158,0.323596328496933,0.0219905003905296,0.280226171016693
2.661259862,-0.150421142578125,-0.204022988677025,0.366966485977173
2.680819028,-0.538919985294342,-0.463022232055664,0.230136707425118
2.700377257,-0.584122717380524,-0.452026963233948,-0.0618482865393162
2.719934757,-0.419193923473358,-0.433701545000076,-0.0948340371251106
2.739493039,-0.13942588865757,-0.144159957766533,0.0542126931250095
2.759052205,0.3113794028759,0.453248679637909,0.121405892074108
2.778610434,0.3113794028759,0.195471122860909,0.370631575584412
2.798167934,0.218530610203743,0.0574196428060532,0.37429666519165
2.817726216,0.26495498418808,0.245560601353645,0.22524993121624
2.837285382,0.108578100800514,0.0818535313010216,0.200816035270691
2.856843612,-0.146756052970886,-0.249225676059723,0.000458135444205254
2.876401112,-0.193180441856384,-0.43003648519516,-0.344059705734253
2.895959393,-0.106440134346485,-0.487456113100052,-0.515096962451935
2.915518559,-0.0636808276176453,-0.426371395587921,-0.446682065725327
2.935076789,-0.0991099700331688,-0.290763288736343,-0.256097704172134
2.954634289,-0.141869276762009,-0.21379654109478,-0.078952006995678
2.97419257,-0.173633337020874,-0.40560257434845,-0.0361927002668381
2.993751737,-0.312906503677368,-0.950478315353394,-0.154697075486183
3.013309966,-0.664754509925842,-1.39761853218079,-0.140036731958389
3.032867466,-1.13755035400391,-0.685370624065399,0.22524993121624
3.052425747,-1.47595965862274,-0.0916270911693573,0.74080502986908
3.071984914,-1.32202613353729,0.0439810007810593,0.73591822385788
3.091543143,-0.883437871932983,-0.21257483959198,0.329093962907791
3.111100643,-0.449736297130585,-0.23456534743309,-0.24510246515274
3.130658924,-0.195623829960823,0.117282673716545,-0.545639336109161
3.150218091,-0.0905581042170525,0.313975483179092,-0.501658320426941
3.16977632,0.00473406631499529,0.433701545000076,-0.289083451032639
3.18933382,0.209978744387627,0.46913069486618,-0.137593343853951
3.208892101,0.492190182209015,0.403159201145172,-0.190126210451126
3.228451216,0.784175157546997,0.366508364677429,-0.359941750764847
3.248009497,0.900236129760742,0.289541602134705,-0.50532341003418
3.267566997,0.749967694282532,0.304201930761337,-0.493106454610825
3.287125278,0.377350896596909,0.40804597735405,-0.378267168998718
3.306684393,-0.0734543800354004,0.359178185462952,-0.303743809461594
3.326242622,-0.315349906682968,0.186919257044792,-0.293970257043839
3.345800122,-0.206619083881378,0.0610847249627113,-0.302522093057632
3.365358455,0.155002489686012,0.141716569662094,-0.257319420576096
3.38491757,0.561826765537262,0.344517856836319,-0.18279604613781
3.404475799,0.770736515522003,0.393385648727417,-0.131484866142273
3.424033299,0.729198932647705,0.218683317303658,-0.0862821787595749
3.44359158,0.58381724357605,0.083075225353241,-0.0154238929972053
3.463150747,0.49952033162117,0.131943002343178,0.0688730254769325
3.482708976,0.516624093055725,0.267551094293594,0.122627586126328
3.502266476,0.492190182209015,0.311532109975815,0.136066228151321
3.521824757,0.338256657123566,0.21501824259758,0.145839780569077
3.541383924,0.172106221318245,0.131943002343178,0.192264169454575
3.560942153,0.064597100019455,0.186919257044792,0.197150945663452
3.580499653,-0.0868930220603943,0.2541124522686,0.132401138544083
3.600057934,-0.299467861652374,0.240673825144768,0.0322221927344799
3.619617101,-0.405755281448364,0.194249421358109,-0.0642916709184647
3.63917533,-0.281142443418503,0.167372152209282,-0.0936123430728912
3.65873283,0.0975828468799591,0.112395897507668,-0.0349710062146187
3.678291112,0.392011225223541,-0.0354291424155235,0.0933069214224815
3.697850226,0.229525864124298,-0.239452123641968,0.197150945663452
3.717408455,-0.09666658192873,-0.375060230493546,0.175160452723503
3.736965955,-0.0881147161126137,-0.245560601353645,0.0713164210319519
3.756524289,0.205091968178749,-0.0207688063383102,0.0151184694841504
3.776083403,0.348030239343643,0.158820286393166,0.0688730254769325
3.795641632,0.0951394587755203,0.279768049716949,0.126292675733566
3.815199132,-0.402090221643448,0.14904673397541,0.0945286154747009
3.834757414,-0.67208468914032,-0.0989572554826737,-0.0569615066051483
3.85431658,-0.255486875772476,-0.0207688063383102,-0.225555345416069
3.873874809,0.611916244029999,0.241895511746407,-0.234107211232185
3.893432309,1.12502789497375,0.386055469512939,-0.0374143943190575
3.912990591,0.93200021982193,0.344517856836319,0.167830288410187
3.932549757,0.326039731502533,0.0855186134576798,0.232580095529556
3.952107987,-0.303132951259613,-0.276102960109711,0.143396392464638
3.971665487,-0.684301614761353,-0.517998456954956,-0.00931542087346315
3.991223768,-0.698961973190308,-0.587635040283203,-0.105829291045666
4.010782882,-0.397203415632248,-0.43003648519516,-0.111937761306763
4.030341112,-0.0196998249739409,-0.103844031691551,-0.0606265887618065
4.049898612,0.1806580722332,0.152711808681488,-0.0251974500715733
4.069456945,0.137898772954941,0.169815540313721,-0.0899472609162331
4.089016059,-0.00381779531016946,0.0745233669877052,-0.207229927182198
4.108574289,-0.132095724344254,0.0134386401623487,-0.248767539858818
4.128131789,-0.216392636299133,0.0354291424155235,-0.201121464371681
4.14769007,-0.260373651981354,0.0708582848310471,-0.124154701828957
4.167249237,-0.271368891000748,0.0757450610399246,-0.066735066473484
4.186807466,-0.298246175050736,0.100178949534893,-0.0471879504621029
4.206364966,-0.352000743150711,0.0940704792737961,-0.072843536734581
4.225923247,-0.373991221189499,0,-0.129041478037834
4.245482362,-0.354444116353989,-0.113617591559887,-0.186461120843887
4.265040643,-0.272590577602387,-0.14904673397541,-0.171800792217255
4.284598091,-0.0856713280081749,-0.0928487852215767,-0.0655133649706841
4.304156424,0.0658187940716744,-0.00244338903576136,0.0835333615541458
4.323715539,-0.00992626789957285,0.0659715011715889,0.167830288410187
4.343273768,-0.305576354265213,-0.0317640565335751,0.164165198802948
4.362831268,-0.554802000522614,-0.287098199129105,0.0529909990727901
4.382389549,-0.428967475891113,-0.474017471075058,-0.149810284376144
4.401948716,-0.0209215190261602,-0.332300901412964,-0.280531615018845
4.421506945,0.175771296024323,-0.045202698558569,-0.284196674823761
4.441064445,-0.185850277543068,-0.146603345870972,-0.227998733520508
4.460622726,-0.876107692718506,-0.44714018702507,-0.115602843463421
4.480181841,-0.920088708400726,-0.348182946443558,0.0102316914126277
4.499740122,-0.00870457384735346,-0.1282779276371,0.145839780569077
4.51929757,0.824491083621979,0.0598630309104919,0.311990231275558
4.538855903,0.726755499839783,0.164928764104843,0.409725785255432
4.558415018,0.0120642334222794,0.0146603342145681,0.304660081863403
4.577973247,-0.612221658229828,-0.0684148967266083,-0.00198525353334844
4.597530747,-0.750273168087006,0.0794101431965828,-0.320847511291504
4.617089028,-0.494938999414444,0.226013481616974,-0.449125438928604
4.636648195,-0.156529605388641,0.279768049716949,-0.400257676839829
4.656206424,0.0609320141375065,0.274881273508072,-0.326956003904343
4.675763924,0.113464877009392,0.201579600572586,-0.324512600898743
4.695322205,0.0132859274744987,0.0464243926107883,-0.378267168998718
4.71488132,-0.132095724344254,-0.14782503247261,-0.443016976118088
4.734439549,-0.0758977755904198,-0.249225676059723,-0.483332902193069
4.753997049,0.129346907138824,-0.174702316522598,-0.425913244485855
4.773555382,0.28694549202919,0.0378725305199623,-0.317182451486588
4.793114497,0.335813283920288,0.217461630702019,-0.253654330968857
4.812672726,0.337034970521927,0.260220944881439,-0.291526854038239
4.832230226,0.305270910263062,0.261442631483078,-0.362385123968124
4.851788507,0.225860774517059,0.271216183900833,-0.386819034814835
4.871347622,0.170884519815445,0.274881273508072,-0.372158706188202
4.890905903,0.260068207979202,0.306645333766937,-0.336729556322098
4.910463403,0.35413870215416,0.398272424936295,-0.328177690505981
4.930021684,0.268620073795319,0.422706305980682,-0.367271900177002
4.949580799,0.0316113457083702,0.438588321208954,-0.454012215137482
4.969139028,-0.105218440294266,0.448361873626709,-0.506545066833496
4.988696528,0.0719272643327713,0.284654825925827,-0.467450857162476
5.008254809,0.280837029218674,0.0745233669877052,-0.434465110301971
5.027813976,0.280837029218674,0.103844031691551,-0.363606840372086
5.047372205,0.145228937268257,0.30175855755806,-0.263427883386612
5.066929705,-0.00870457384735346,0.426371395587921,-0.197456374764442
5.086487987,-0.0502421855926514,0.276102960109711,-0.260984480381012
5.106047101,0.137898772954941,-0.0647498071193695,-0.401479363441467
5.12560533,0.533727765083313,-0.202801287174225,-0.440573573112488
5.14516283,0.858698546886444,-0.00733016710728407,-0.342838019132614
5.164721112,0.88801920413971,0.185697570443153,-0.20234315097332
5.184280278,0.599699318408966,0.0904053971171379,-0.155918762087822
5.203838507,0.103691324591637,-0.211353152990341,-0.236550599336624
5.223396007,-0.325123459100723,-0.372616827487946,-0.318404138088226
5.242954289,-0.442406117916107,-0.274881273508072,-0.345281422138214
5.262513403,-0.250600099563599,-0.0928487852215767,-0.322069227695465
5.282071632,0.0169510114938021,-0.0207688063383102,-0.285418391227722
5.301629132,0.144007235765457,-0.0806318372488022,-0.33184278011322
5.321187414,0.200205191969872,-0.144159957766533,-0.450347155332565
5.34074658,0.222195684909821,-0.103844031691551,-0.538309156894684
5.360304809,0.185544848442078,0.00122169451788068,-0.555412888526917
5.379862309,0.115908265113831,0.100178949534893,-0.540752530097961
5.399420591,0.0963611528277397,0.150268420577049,-0.559077978134155
5.418979705,0.0975828468799591,0.112395897507668,-0.634823024272919
5.438537934,0.0792574286460877,0.0317640565335751,-0.749662280082703
5.458095434,0.0401632077991962,-0.00733016710728407,-0.838846027851105
5.477653716,-0.0245866030454636,0.0195471122860909,-0.847397863864899
5.497212882,-0.0758977755904198,0.0671931952238083,-0.794865012168884
5.516771112,-0.107661828398705,0.0305423624813557,-0.76187926530838
5.536328612,-0.0954448878765106,-0.139273181557655,-0.820520579814911
5.555886893,-0.127208948135376,-0.204022988677025,-0.910925984382629
5.575446007,-0.354444116353989,-0.0439810007810593,-0.857171416282654
5.595004237,-0.477835267782211,-0.0280989743769169,-0.709346354007721
5.614561737,-0.316571593284607,-0.344517856836319,-0.736223638057709
5.634120018,-0.0270299911499023,-0.684148907661438,-0.940246641635895
5.653679132,0.176992997527123,-0.546097457408905,-1.07096791267395
5.673237362,0.165997743606567,-0.211353152990341,-0.946355104446411
5.692794862,0.0597103200852871,-0.083075225353241,-0.765544354915619
5.712353143,0.0609320141375065,-0.124612838029861,-0.727671802043915
5.731912309,0.239299416542053,-0.124612838029861,-0.782648026943207
5.751470539,0.478751540184021,-0.0586413368582726,-0.903595805168152
5.771028039,0.515402376651764,-0.0378725305199623,-0.945133447647095
5.79058632,0.241742804646492,-0.0904053971171379,-0.864501595497131
5.810145434,-0.0539072714745998,-0.0549762547016144,-0.769209384918213
5.829703664,-0.176076725125313,0.116060979664326,-0.699572801589966
5.849261164,-0.127208948135376,0.180810794234276,-0.658035218715668
5.868819445,-0.023364907130599,0.122169449925423,-0.627492845058441
5.888378559,0.0193943995982409,0.0464243926107883,-0.576181650161743
5.907936789,-0.00503948982805014,-0.0476460866630077,-0.528535604476929
5.927494289,-0.0539072714745998,-0.0733016729354858,-0.48088949918747
5.94705257,-0.0649025216698647,-0.0464243926107883,-0.450347155332565
5.966611684,-0.0282516852021217,-0.0317640565335751,-0.482111185789108
5.986169914,0.0474933758378029,-0.0818535313010216,-0.579846739768982
6.005727414,0.0609320141375065,-0.157598599791527,-0.629936218261719
6.025285695,-0.0209215190261602,-0.108730815351009,-0.595728814601898
6.044844809,-0.105218440294266,0.0171037241816521,-0.537087440490723
6.064403039,-0.122322164475918,0.129499614238739,-0.51998370885849
6.083960539,-0.100331664085388,0.1270562261343,-0.548082709312439
6.10351882,-0.0392469353973866,0.0317640565335751,-0.571294903755188
6.123077934,0.042606595903635,0.0146603342145681,-0.559077978134155
6.142636164,0.113464877009392,0.101400643587112,-0.521205425262451
6.162193664,0.183101460337639,0.177145704627037,-0.51998370885849
6.181751945,0.238077715039253,0.141716569662094,-0.573738276958466
6.201311059,0.294275671243668,0.0561979487538338,-0.60672402381897
6.220869289,0.348030239343643,0.168593838810921,-0.625049471855164
6.240426789,0.223417386412621,0.337187677621841,-0.682469129562378
6.25998507,-0.0587940476834774,0.399494111537933,-0.759435832500458
6.279544184,-0.218836024403572,0.134386390447617,-0.833959221839905
6.299102414,-0.103996746242046,-0.162485376000404,-0.92558628320694
6.318659862,0.263733297586441,-0.076966755092144,-1.02087843418121
6.338218143,0.637571811676025,0.134386390447617,-1.02454352378845
6.357777309,0.812274158000946,0.19302773475647,-0.926807999610901
6.377335487,0.696213185787201,0.139273181557655,-0.820520579814911
6.396892987,0.363912254571915,0.0684148967266083,-0.698351144790649
6.416451268,0.00595576083287597,-0.0806318372488022,-0.551747798919678
6.436010382,-0.189515367150307,-0.287098199129105,-0.461342394351959
6.455568612,-0.154086217284203,-0.513111710548401,-0.469894260168076
6.475126112,-0.0306950751692057,-0.665823519229889,-0.551747798919678
6.494684341,0.0536018460988998,-0.673153698444367,-0.616497576236725
6.514243507,0.0780357345938683,-0.597408592700958,-0.62627112865448
6.533801684,0.0352764278650284,-0.537545561790466,-0.623827755451202
6.553359184,-0.0539072714745998,-0.504559814929962,-0.62627112865448
6.572917466,-0.0942231863737106,-0.438588321208954,-0.638488113880158
6.59247658,-0.105218440294266,-0.359178185462952,-0.660478591918945
6.612034809,-0.144312664866447,-0.31886225938797,-0.681247413158417
6.631592257,-0.215170949697495,-0.30175855755806,-0.686134159564972
6.651150539,-0.265260428190231,-0.305423617362976,-0.698351144790649
6.670709653,-0.282364159822464,-0.32130566239357,-0.764322638511658
6.690267882,-0.260373651981354,-0.333522617816925,-0.822963953018189
6.70982533,-0.0820062458515167,-0.197914510965347,-0.76187926530838
6.729383612,0.288167208433151,0.0354291424155235,-0.637266397476196
6.748942726,0.555718302726746,0.141716569662094,-0.604280650615692
6.768500955,0.515402376651764,0.0891837030649185,-0.648261666297913
6.788058455,0.260068207979202,-0.0329857505857945,-0.691020965576172
6.807616684,0.00717745535075665,-0.19302773475647,-0.648261666297913
6.827175799,-0.163859784603119,-0.335965991020203,-0.526092231273651
6.846734028,-0.227387890219688,-0.370173424482346,-0.37460207939148
6.866291528,-0.15897299349308,-0.322527348995209,-0.274423122406006
6.885849757,0.00473406631499529,-0.377503603696823,-0.337951242923737
6.905408872,0.172106221318245,-0.509446620941162,-0.504101693630219
6.924967101,0.168441131711006,-0.476460874080658,-0.571294903755188
6.944524601,0.0316113457083702,-0.250447362661362,-0.447903752326965
6.96408283,-0.023364907130599,0.00366508355364203,-0.317182451486588
6.983641945,0.178214684128761,0.163707062602043,-0.344059705734253
7.003200174,0.49952033162117,0.186919257044792,-0.491884768009186
7.022757622,0.56427013874054,0.138051480054855,-0.589620292186737
7.042315903,0.250294655561447,0.142938256263733,-0.584733545780182
7.061875018,-0.18096350133419,0.23334364593029,-0.527313888072968
7.081433247,-0.419193923473358,0.262664318084717,-0.485776275396347
7.100990695,-0.361774295568466,0.158820286393166,-0.493106454610825
7.120548976,-0.113770298659801,0.0561979487538338,-0.510210156440735
7.140108091,0.0560452342033386,0.0623064190149307,-0.463785767555237
7.159666268,0.081700824201107,0.0476460866630077,-0.375823765993118
7.179223768,0.0279462616890669,-0.0317640565335751,-0.2903051674366
7.198781997,-0.0111479628831148,-0.112395897507668,-0.230442121624947
7.218341112,-0.0551289655268192,-0.14904673397541,-0.180352658033371
7.237899341,-0.0991099700331688,-0.119726061820984,-0.122933007776737
7.257456789,-0.0917797982692719,-0.102622337639332,-0.147366896271706
7.27701507,-0.0820062458515167,-0.19180603325367,-0.229220435023308
7.296574184,-0.107661828398705,-0.320083975791931,-0.315960735082626
7.316132362,-0.134539112448692,-0.296871781349182,-0.356276661157608
7.335689809,-0.127208948135376,-0.0818535313010216,-0.322069227695465
7.355248091,-0.0355818532407284,0.144159957766533,-0.334286153316498
7.374807205,0.125681817531586,0.189362645149231,-0.479667812585831
7.394365382,0.227082461118698,0.138051480054855,-0.629936218261719
7.413922882,0.26739838719368,0.224791795015335,-0.636044681072235
7.433481112,0.168441131711006,0.324970752000809,-0.429578334093094
7.453040226,-0.110105216503143,0.185697570443153,-0.157140463590622
7.472598455,-0.355665802955627,-0.0268772803246975,-0.11804623156786
7.492155903,-0.311684817075729,-0.136829793453217,-0.336729556322098
7.511714132,-0.0221432130783796,-0.117282673716545,-0.495549827814102
7.531273247,0.170884519815445,0.0158820282667875,-0.4161396920681
7.550831476,0.0597103200852871,0.133164703845978,-0.201121464371681
7.570388924,-0.220057725906372,0.109952509403229,-0.0581832006573677
7.589947153,-0.233496367931366,-0.131943002343178,-0.132706567645073
7.609506268,0.142785549163818,-0.379947006702423,-0.318404138088226
7.629064497,0.527619302272797,-0.309088706970215,-0.361163437366486
7.648621945,0.611916244029999,0,-0.196234688162804
7.668180174,0.421331882476807,0.174702316522598,0.0212269425392151
7.687739289,0.0694838762283325,0.0696365907788277,0.0933069214224815
7.707297518,-0.260373651981354,-0.124612838029861,0.0151184694841504
7.726854966,-0.384986490011215,-0.222348406910896,-0.0911689549684525
7.746413195,-0.243269920349121,-0.184475868940353,-0.100942507386208
7.765972309,0.0316113457083702,-0.0403159186244011,-0.0068720318377018
7.785530487,0.190431639552116,0.195471122860909,0.122627586126328
7.805087987,0.108578100800514,0.323749035596848,0.200816035270691
7.824646216,-0.128430634737015,0.172258928418159,0.215476363897324
7.84420533,-0.300689578056335,-0.0305423624813557,0.180047228932381
7.863763507,-0.297024488449097,-0.10750912129879,0.129957750439644
7.883320955,-0.221279412508011,0.00122169451788068,0.107967250049114
7.902879237,-0.140647575259209,0.217461630702019,0.132401138544083
7.922438351,-0.11743538826704,0.278546363115311,0.195929259061813
7.941996528,-0.218836024403572,0.0329857505857945,0.236245170235634
7.961553976,-0.293359398841858,-0.245560601353645,0.26800924539566
7.981112205,-0.133317410945892,-0.2565558552742,0.272896021604538
8.00067132,0.0865876004099846,-0.083075225353241,0.269230931997299
8.020229497,0.0682621821761131,0.0586413368582726,0.281447887420654
8.039786997,-0.057572353631258,0.0427593067288399,0.198372647166252
8.059345226,0.0120642334222794,-0.0561979487538338,0.0456608310341835
8.078904341,0.205091968178749,-0.174702316522598,-0.0484096445143223
8.098462518,0.396898001432419,-0.271216183900833,-0.107050985097885
8.118019966,0.577708780765533,-0.310310393571854,-0.152253672480583
8.137578247,0.533727765083313,-0.202801287174225,-0.0532964244484901
8.157137309,0.190431639552116,-0.0305423624813557,0.166608586907387
8.176695539,-0.0795628577470779,-0.0134386401623487,0.282669574022293
8.196252987,0.111021488904953,-0.130721315741539,0.187377393245697
8.215811216,0.618024706840515,-0.122169449925423,-0.00442864280194044
8.23537033,0.872137188911438,0.145381644368172,-0.0484096445143223
8.254928507,0.597255885601044,0.395829021930695,0.0664296373724937
8.274485955,-0.0697892978787422,0.47157409787178,0.202037736773491
8.294044184,-0.740499615669251,0.377503603696823,0.181268930435181
8.313603299,-1.01171576976776,0.201579600572586,0.0517693050205708
8.333161528,-0.760046720504761,0.0818535313010216,-0.0752869248390198
8.352718976,-0.235939756035805,0.0806318372488022,-0.0997208133339882
8.372277205,0.155002489686012,0.174702316522598,-0.0117588099092245
8.391836268,0.228304162621498,0.160041987895966,0.0957503095269203
8.411394497,0.0914743766188622,0.0280989743769169,0.155613332986832
8.430951945,-0.0331384651362896,-0.10750912129879,0.13973131775856
8.450510174,-0.0331384651362896,-0.153933510184288,0.125070974230766
8.470069289,0.0267245676368475,-0.0879620015621185,0.151948258280754
8.489627466,0.0792574286460877,-0.00122169451788068,0.161721810698509
8.509184914,0.100026234984398,0.0158820282667875,0.109188944101334
8.528743143,0.0926960706710815,0.045202698558569,-0.000763559073675424
8.548302257,0.0303896516561508,0.177145704627037,-0.122933007776737
8.567860434,0.0181727055460215,0.344517856836319,-0.267092972993851
8.587417882,0.150115713477135,0.416597843170166,-0.399035960435867
8.606976112,0.385902762413025,0.371395140886307,-0.450347155332565
8.626535226,0.537392854690552,0.269994497299194,-0.339172929525375
8.646093403,0.334591597318649,0.10750912129879,-0.214560106396675
8.665650851,-0.278699070215225,-0.207688063383102,-0.152253672480583
8.68520908,-0.830904960632324,-0.53143709897995,-0.144923508167267
8.704768195,-0.782037198543549,-0.587635040283203,-0.140036731958389
8.724326372,-0.259151935577393,-0.371395140886307,-0.103385895490646
8.74388382,0.0193943995982409,-0.108730815351009,-0.09605573117733
8.763442049,-0.134539112448692,-0.0171037241816521,-0.11804623156786
8.783001164,-0.300689578056335,0.177145704627037,-0.122933007776737
8.802559341,-0.0160347409546375,0.262664318084717,-0.119267925620079
8.822116789,0.572822034358978,0.180810794234276,-0.165692314505577
8.841675018,0.850146651268005,0.207688063383102,-0.109494373202324
8.861234132,0.545944750308991,0.251669079065323,0.087198443710804
8.880792309,-0.0746760740876198,0.0904053971171379,0.261900752782822
8.900349757,-0.57068407535553,-0.251669079065323,0.296108216047287
8.919907987,-0.667197942733765,-0.527772009372711,0.211811289191246
8.939467101,-0.39231663942337,-0.480125933885574,0.114075727760792
8.959025278,0.00595576083287597,-0.2541124522686,0.087198443710804
8.978582726,0.228304162621498,-0.266329407691956,0.0688730254769325
8.998140955,0.141563847661018,-0.458135455846787,-0.0251974500715733
9.01770007,0.0255028735846281,-0.461800515651703,-0.152253672480583
9.037258247,0.107356406748295,-0.335965991020203,-0.238993987441063
9.056815695,0.272285163402557,-0.257777541875839,-0.289083451032639
9.076373924,0.359025478363037,-0.0794101431965828,-0.26587125658989
9.095932987,0.272285163402557,0.108730815351009,-0.137593343853951
9.115491216,-0.0221432130783796,0.103844031691551,-0.000763559073675424
9.135048612,-0.364217668771744,-0.0708582848310471,0.0346655808389187
9.154606893,-0.591452836990356,-0.196692824363709,0.0297788046300411
9.174165955,-0.60489147901535,-0.174702316522598,0.0224486365914345
9.193724132,-0.395981729030609,-0.161263674497604,0.0371089726686478
9.21328158,-0.0697892978787422,-0.217461630702019,0.0762031972408295
9.232839809,0.137898772954941,-0.0977355614304543,0.128736063838005
9.252398924,0.13912045955658,0.101400643587112,0.161721810698509
9.271957101,0.0132859274744987,0.224791795015335,0.194707557559013
9.291514549,-0.157751306891441,0.218683317303658,0.194707557559013
9.311072778,-0.163859784603119,0.160041987895966,0.122627586126328
9.330631893,-0.0917797982692719,0.157598599791527,0.0920852273702622
9.35019007,-0.113770298659801,0.2565558552742,0.15927842259407
9.369747518,-0.0881147161126137,0.302980244159699,0.171495363116264
9.389305747,0.115908265113831,0.183254182338715,0.0419957488775253
9.408864809,0.377350896596909,0.0781884491443634,-0.109494373202324
9.428423039,0.511737287044525,0.100178949534893,-0.18157434463501
9.447980434,0.429883748292923,0.283433139324188,-0.166914016008377
9.467538716,0.120795048773289,0.420262902975082,-0.129041478037834
9.487097778,-0.217614337801933,0.371395140886307,-0.066735066473484
9.506655955,-0.416750550270081,0.190584346652031,-0.0447445623576641
9.526213403,-0.480278670787811,-0.0305423624813557,-0.0887255668640137
9.545771632,-0.411863774061203,-0.152711808681488,-0.127819791436195
9.565330747,-0.249378398060799,-0.113617591559887,-0.0752869248390198
9.584888924,-0.101553358137608,-0.0647498071193695,0.0407740548253059
9.604446372,-0.114992000162601,-0.197914510965347,0.0908635333180428
9.624004601,-0.271368891000748,-0.423927992582321,-0.0203106720000505
9.643563664,-0.367882758378983,-0.563201189041138,-0.185239434242249
9.663121893,-0.259151935577393,-0.582748293876648,-0.215781792998314
9.682679341,-0.0697892978787422,-0.522885262966156,-0.103385895490646
9.70223757,0.0792574286460877,-0.357956498861313,0.0566560849547386
9.721796632,0.0792574286460877,-0.0574196428060532,0.15927842259407
9.741354809,-0.106440134346485,0.112395897507668,0.143396392464638
9.760912257,-0.354444116353989,-0.0293206684291363,0.063986249268055
9.780470487,-0.433854252099991,-0.152711808681488,0.0175618585199118
9.800029601,-0.223722815513611,-0.114839285612106,0.0187835525721312
9.819587778,0.115908265113831,-0.0109952501952648,0.00412321882322431
9.839145226,0.327261418104172,0.0219905003905296,-0.0410794764757156
9.858703455,0.288167208433151,0.103844031691551,0.00290152453817427
9.878262518,0.125681817531586,0.141716569662094,0.129957750439644
9.897820747,0.104913018643856,0.0928487852215767,0.150726556777954
9.917378143,0.260068207979202,0.0623064190149307,0.0505476109683514
9.936936424,0.3113794028759,0.182032480835915,0.0603211671113968
9.956495487,0.0474933758378029,0.338409394025803,0.277782797813416
9.976053664,-0.406976997852325,0.180810794234276,0.43904647231102
9.995611112,-0.487608820199966,-0.230900257825851,0.187377393245697
10.015169341,-0.0734543800354004,-0.265107721090317,-0.18279604613781
10.034728455,0.406671553850174,0.134386390447617,-0.2903051674366
10.054286632,0.552053213119507,0.517998456954956,-0.152253672480583
10.07384408,0.274728566408157,0.55098420381546,0.057877779006958
10.093402309,-0.11865708231926,0.19180603325367,0.107967250049114
10.112961372,-0.273812294006348,-0.186919257044792,-0.0203106720000505
10.132519549,-0.111326910555363,-0.266329407691956,-0.173022478818893
10.152076997,0.114686571061611,-0.142938256263733,-0.209673315286636
10.171635226,0.130568608641624,0.00488677807152271,-0.120489619672298
10.191194341,-0.0624591335654259,-0.00855186209082604,-0.0105371149256825
10.210752518,-0.278699070215225,-0.153933510184288,-0.0325276181101799
10.230309966,-0.382543087005615,-0.252890765666962,-0.107050985097885
10.249868195,-0.444849520921707,-0.21501824259758,-0.141258433461189
10.269427257,-0.554802000522614,-0.0733016729354858,-0.0923906490206718
10.288985434,-0.713622331619263,0.025655584409833,0.013896775431931
10.308542882,-0.777150452136993,-0.114839285612106,0.0749815031886101
10.328101112,-0.593896269798279,-0.36039987206459,0.0334438867866993
10.347660226,-0.257930248975754,-0.43003648519516,0.0383306667208672
10.367218403,0.0108425384387374,-0.346961230039597,0.0945286154747009
10.386775851,0.113464877009392,-0.261442631483078,0.128736063838005
10.40633408,0.113464877009392,-0.182032480835915,0.145839780569077
10.425893143,0.158667579293251,-0.155155196785927,0.142174705862999
10.44545132,0.324818015098572,-0.103844031691551,0.120184198021889
10.465008768,0.515402376651764,0.0207688063383102,0.109188944101334
10.484566997,0.532506108283997,0.180810794234276,0.109188944101334
10.504126112,0.333369880914688,0.199136212468147,0.149504870176315
10.523684289,-0.106440134346485,0.140494868159294,0.20448112487793
10.543241737,-0.468061715364456,0.0940704792737961,0.145839780569077
10.562799966,-0.282364159822464,0.158820286393166,0.00656660785898566
10.582359028,0.230747550725937,0.415376126766205,-0.108272679150105
10.601917205,0.515402376651764,0.653606593608856,-0.0911689549684525
10.621474653,0.468977987766266,0.640167951583862,-0.0606265887618065
10.641032882,0.260068207979202,0.459357142448425,-0.110716067254543
10.660591997,0.0731489583849907,0.261442631483078,-0.179130956530571
10.680150174,0.042606595903635,0.0879620015621185,-0.198678076267242
10.69970757,0.113464877009392,0.0476460866630077,-0.163248926401138
10.719265851,0.186766549944878,0.105065725743771,-0.110716067254543
10.738824914,0.228304162621498,0.133164703845978,-0.09605573117733
10.758383091,0.209978744387627,0.0757450610399246,-0.127819791436195
10.777940539,0.133011996746063,0.0378725305199623,-0.141258433461189
10.797498768,0.0401632077991962,0.102622337639332,-0.103385895490646
10.81705783,0.00839914940297604,0.155155196785927,-0.0313059203326702
10.836616007,0.0242811776697636,0.1270562261343,0.0285571087151766
10.856173455,0.0352764278650284,0.139273181557655,0.0762031972408295
10.875731684,-0.00259610079228878,0.178367406129837,0.13728791475296
10.895290747,-0.152864530682564,0.0794101431965828,0.198372647166252
10.914848976,-0.43751934170723,-0.101400643587112,0.227693319320679
10.934406372,-0.592674553394318,-0.293206691741943,0.192264169454575
10.953964601,-0.320236682891846,-0.46668729186058,0.13850961625576
10.973523716,0.170884519815445,-0.491121202707291,0.100637085735798
10.993081893,0.498298645019531,-0.313975483179092,0.081089973449707
11.012639289,0.597255885601044,0.0342074483633041,0.107967250049114
11.032197518,0.487303406000137,0.14904673397541,0.109188944101334
11.051756632,0.300384134054184,-0.102622337639332,0.0102316914126277
11.071314809,0.167219430208206,-0.211353152990341,-0.0545181185007095
11.090872205,0.0609320141375065,-0.0183254182338715,0.0261137206107378
11.110430487,-0.195623829960823,0.375060230493546,0.170273676514626
11.129989549,-0.663532853126526,0.62306421995163,0.26800924539566
11.149547726,-1.04470157623291,0.257777541875839,0.274117708206177
11.169105174,-0.838235139846802,-0.265107721090317,0.156835034489632
11.188663403,-0.146756052970886,-0.34329617023468,0.0529909990727901
11.208222466,0.384681075811386,-0.0146603342145681,0.127514362335205
11.227780643,0.574043691158295,0.14904673397541,0.200816035270691
11.247338039,0.448209166526794,0.0268772803246975,0.153169944882393
11.266896268,0.108578100800514,-0.21379654109478,0.0566560849547386
11.286455382,-0.171189948916435,-0.327414125204086,0.0175618585199118
11.306013559,-0.173633337020874,-0.262664318084717,0.0383306667208672
11.325570955,0.00595576083287597,-0.0940704792737961,0.087198443710804
11.345129184,0.123238436877728,0.0610847249627113,0.116519115865231
11.364688299,0.0780357345938683,0.0977355614304543,0.111632339656353
11.384246476,-0.0868930220603943,0.0598630309104919,0.0725381150841713
11.403803872,-0.229831278324127,0.0195471122860909,-0.00320694805122912
11.423362101,-0.239604830741882,0.0623064190149307,-0.0679567605257034
11.442921164,-0.132095724344254,0.129499614238739,-0.072843536734581
11.462479341,-0.0245866030454636,0.162485376000404,-0.0215323660522699
11.482036789,-0.0477987974882126,0.196692824363709,0.0456608310341835
11.501594944,-0.124765552580357,0.201579600572586,0.0762031972408295
11.521154006,-0.0991099700331688,0.1270562261343,0.0456608310341835
11.540712183,-0.0245866030454636,0.0403159186244011,-0.0447445623576641
11.560269631,-0.0539072714745998,-0.0207688063383102,-0.0838387832045555
11.57982786,-0.157751306891441,-0.0842969194054604,0.0261137206107378
11.599386923,-0.144312664866447,-0.124612838029861,0.202037736773491
11.6189451,-0.0160347409546375,-0.131943002343178,0.236245170235634
11.638502496,0.0450499840080738,-0.162485376000404,0.11774080991745
11.658060725,0.0939177647233009,-0.167372152209282,-0.0508530326187611
11.677619788,0.194096714258194,-0.0232121963053942,-0.072843536734581
11.697177965,0.142785549163818,0.145381644368172,0.136066228151321
11.716735413,-0.0355818532407284,0.0842969194054604,0.291221439838409
11.736293642,-0.0820062458515167,-0.0244338903576136,0.226471617817879
11.755852704,0.0682621821761131,0.083075225353241,0.0542126931250095
11.775410829,0.306492626667023,0.393385648727417,-0.0740652307868004
11.794968277,0.390789538621902,0.61817741394043,-0.127819791436195
11.814526506,0.189209938049316,0.509446620941162,-0.185239434242249
11.834085569,-0.172411635518074,0.410489350557327,-0.247545853257179
11.853643746,-0.475391864776611,0.298093467950821,-0.260984480381012
11.873201142,-0.527924716472626,0.0940704792737961,-0.247545853257179
11.892759371,-0.406976997852325,-0.10750912129879,-0.280531615018845
11.912318433,-0.243269920349121,-0.14904673397541,-0.31229567527771
11.93187661,-0.0624591335654259,-0.0268772803246975,-0.276866525411606
11.951434006,0.0377198196947575,-0.00977355614304543,-0.225555345416069
11.970992235,0.0389415137469769,-0.178367406129837,-0.238993987441063
11.990551298,-0.0270299911499023,-0.38361206650734,-0.287861764431
12.010109475,-0.0502421855926514,-0.350626319646835,-0.26831465959549
12.029666871,0.0218377895653248,-0.102622337639332,-0.157140463590622
12.0492251,0.064597100019455,-0.00366508355364203,-0.0948340371251106
12.068784163,0.00473406631499529,-0.119726061820984,-0.138815045356751
12.08834234,-0.09666658192873,-0.190584346652031,-0.164470627903938
12.107899735,-0.113770298659801,-0.133164703845978,-0.130263179540634
12.127457965,-0.0404686294496059,0.0134386401623487,-0.0948340371251106
12.147017027,0.0316113457083702,0.142938256263733,-0.0618482865393162
12.166575204,0.136677071452141,0.150268420577049,-0.0325276181101799
12.1861326,0.294275671243668,0.0427593067288399,0.0114533863961697
12.205690829,0.20142687857151,-0.0464243926107883,0.00290152453817427
12.225249892,-0.149199441075325,0.0244338903576136,-0.0606265887618065
12.244808017,-0.457066476345062,0.119726061820984,-0.0178672820329666
12.264365465,-0.33123192191124,0.100178949534893,0.0310004986822605
12.283923642,0.0462716780602932,0.117282673716545,0.00167983002029359
12.303482704,0.212422132492065,0.243117213249207,0.00778830237686634
12.323040881,0.0670404881238937,0.240673825144768,0.101858779788017
12.342598277,-0.193180441856384,0.0183254182338715,0.125070974230766
12.362156506,-0.133317410945892,-0.23578704893589,0.0383306667208672
12.381715569,0.304049223661423,-0.288319915533066,-0.0716218426823616
12.401273694,0.647345364093781,-0.0794101431965828,-0.0508530326187611
12.420831142,0.622911512851715,0.10750912129879,0.0933069214224815
12.440389319,0.261289924383163,0.0488677807152271,0.241131961345673
12.459948381,-0.190737053751946,-0.211353152990341,0.260679066181183
12.479506558,-0.345892250537872,-0.453248679637909,0.148283168673515
12.499063954,-0.132095724344254,-0.524106919765472,0.0151184694841504
12.518622183,0.185544848442078,-0.267551094293594,0.0151184694841504
12.538181194,0.326039731502533,-0.00977355614304543,0.105523861944675
12.557739371,0.175771296024323,-0.0500894747674465,0.145839780569077
12.577296767,-0.103996746242046,-0.155155196785927,0.087198443710804
12.596854996,-0.227387890219688,-0.0904053971171379,-0.0105371149256825
12.616414006,-0.173633337020874,0.0586413368582726,-0.0655133649706841
12.635972183,-0.0771194696426392,0.139273181557655,-0.0887255668640137
12.655529579,-0.0013744062744081,0.138051480054855,-0.0777303129434586
12.675087808,-0.0172564350068569,0.17103722691536,-0.0410794764757156
12.694646871,-0.102775052189827,0.261442631483078,0.00534491334110498
12.714204996,-0.220057725906372,0.266329407691956,0.0383306667208672
12.733762392,-0.256708562374115,0.0513111688196659,0.0285571087151766
12.753320621,-0.125987246632576,-0.14904673397541,-0.0203106720000505
12.772879631,0.00717745535075665,-0.155155196785927,-0.0251974500715733
12.792437808,0.0303896516561508,-0.0549762547016144,0.0835333615541458
12.811995204,-0.0856713280081749,0.0378725305199623,0.243575349450111
12.831553433,-0.22616620361805,0.00488677807152271,0.259457379579544
12.851112444,-0.265260428190231,-0.19302773475647,0.0945286154747009
12.870670621,-0.0807845517992973,-0.390942245721817,-0.135149955749512
12.890228017,0.0401632077991962,-0.216239929199219,-0.152253672480583
12.909786194,-0.162638083100319,0.196692824363709,0.0248920265585184
12.929345256,-0.416750550270081,0.333522617816925,0.110410645604134
12.948903381,-0.409420371055603,0.0757450610399246,-0.0325276181101799
12.968460777,0.0255028735846281,-0.157598599791527,-0.263427883386612
12.988019006,0.586260676383972,-0.0671931952238083,-0.262206196784973
13.007578017,0.767071425914764,0.206466376781464,-0.0716218426823616
13.027136194,0.532506108283997,0.304201930761337,0.0468825288116932
13.04669359,0.131790295243263,0.0574196428060532,0.0224486365914345
13.066251767,-0.123543858528137,-0.205244675278664,-0.0361927002668381
13.085810829,-0.140647575259209,-0.280989736318588,-0.0655133649706841
13.105368954,-0.0123696569353342,-0.164928764104843,-0.0349710062146187
13.12492635,0.131790295243263,-0.0513111688196659,0.0444391369819641
13.144484579,0.120795048773289,-0.178367406129837,0.0175618585199118
13.16404359,-0.0160347409546375,-0.390942245721817,-0.152253672480583
13.183601715,-0.0282516852021217,-0.359178185462952,-0.209673315286636
13.20315911,0.150115713477135,-0.105065725743771,-0.0691784545779228
13.22271734,0.340700060129166,-0.0207688063383102,0.171495363116264
13.24227635,0.335813283920288,-0.0904053971171379,0.358414620161057
13.261834475,0.134233683347702,-0.180810794234276,0.366966485977173
13.281391923,-0.0477987974882126,-0.124612838029861,0.238688573241234
13.3009501,-0.0368035472929478,0.0806318372488022,0.126292675733566
13.32050911,0.042606595903635,0.266329407691956,0.105523861944675
13.340067235,0.0438282899558544,0.339631080627441,0.118962503969669
13.359624683,-0.0551289655268192,0.279768049716949,0.0774248912930489
13.37918286,-0.116213694214821,0.183254182338715,-0.0251974500715733
13.398741871,-0.0978882759809494,0.118504367768765,-0.0838387832045555
13.418299996,-0.154086217284203,0.0439810007810593,-0.0447445623576641
13.437857392,-0.26648211479187,0.0403159186244011,0.0175618585199118
13.457415569,-0.234718054533005,0.135608091950417,-0.00320694805122912
13.476974631,0.0279462616890669,0.267551094293594,-0.1608055382967
13.496532756,0.258846521377564,0.261442631483078,-0.270758032798767
13.516090152,0.184323161840439,0.197914510965347,-0.168135702610016
13.535648329,-0.0294733811169863,0.295650064945221,0.0920852273702622
13.555207392,0.0474933758378029,0.394607335329056,0.261900752782822
13.574765517,0.300384134054184,0.249225676059723,0.202037736773491
13.594322913,0.362690567970276,0.00610847258940339,0.0383306667208672
13.61388109,0.152559101581574,-0.100178949534893,-0.0239757541567087
13.6334401,-0.0270299911499023,-0.0879620015621185,0.0297788046300411
13.652998225,0.0450499840080738,-0.0464243926107883,0.0468825288116932
13.672555621,0.217308908700943,0.0171037241816521,-0.00809372588992119
13.692113798,0.274728566408157,0.0513111688196659,-0.0508530326187611
13.711672808,0.217308908700943,0.0195471122860909,-0.0459662564098835
13.731230933,0.124460130929947,-0.0439810007810593,-0.0068720318377018
13.750788329,0.0303896516561508,-0.0965138673782349,0.0358872748911381
13.770346506,-0.0661242157220841,-0.160041987895966,0.00534491334110498
13.789905569,-0.167524859309196,-0.19302773475647,-0.0948340371251106
13.809463694,-0.218836024403572,-0.166150450706482,-0.159583851695061
13.82902109,-0.182185187935829,-0.0928487852215767,-0.168135702610016
13.848579215,-0.0783411636948586,-0.0904053971171379,-0.196234688162804
13.868138277,-0.106440134346485,-0.21379654109478,-0.262206196784973
13.887696402,-0.373991221189499,-0.291984975337982,-0.324512600898743
13.907253746,-0.466840028762817,-0.179589092731476,-0.247545853257179
13.926811923,-0.147977754473686,-0.0952921733260155,-0.100942507386208
13.946370985,0.216087222099304,-0.158820286393166,-0.0215323660522699
13.96592911,0.273506850004196,-0.257777541875839,0.00534491334110498
13.985486454,0.136677071452141,-0.317640572786331,0.0554343871772289
14.005044631,0.0523801520466805,-0.238230437040329,0.122627586126328
14.024603642,0.0743706524372101,-0.0488677807152271,0.20448112487793
14.044161767,0.080479122698307,0.025655584409833,0.211811289191246
14.063719163,0.175771296024323,-0.0842969194054604,0.0920852273702622
14.08327734,0.368799030780792,0,0.00534491334110498
14.10283635,0.374907493591309,0.316418886184692,0.0407740548253059
14.122394475,0.0939177647233009,0.489899516105652,0.140953004360199
14.141951871,-0.201732307672501,0.44958359003067,0.176382139325142
14.161510048,-0.201732307672501,0.293206691741943,0.129957750439644
14.181069058,0.212422132492065,0.152711808681488,0.0407740548253059
14.200627183,0.680331110954285,0.210131451487541,-0.00809372588992119
14.220184527,0.741415858268738,0.344517856836319,-0.0117588099092245
14.239742704,0.296719044446945,0.409267663955689,-0.00198525353334844
14.259301715,-0.362995982170105,0.300536841154099,-0.0374143943190575
14.27885984,-0.727060973644257,0.14782503247261,-0.135149955749512
14.298417235,-0.641542315483093,0.0806318372488022,-0.208451628684998
14.31797536,-0.355665802955627,0.111174203455448,-0.213338404893875
14.337534371,-0.189515367150307,0.161263674497604,-0.144923508167267
14.357092496,-0.168746560811996,0.0904053971171379,-0.072843536734581
14.376649892,-0.18096350133419,-0.0610847249627113,-0.078952006995678
14.396208069,-0.168746560811996,-0.140494868159294,-0.0997208133339882
14.415767079,-0.0905581042170525,-0.119726061820984,-0.0752869248390198
14.435325152,-0.034360159188509,-0.0696365907788277,-0.0374143943190575
14.454882548,-0.0978882759809494,-0.076966755092144,-0.0203106720000505
14.474440725,-0.184628590941429,-0.131943002343178,-0.0374143943190575
14.493999735,-0.223722815513611,-0.166150450706482,-0.0777303129434586
14.51355786,-0.237161442637444,-0.151490122079849,-0.108272679150105
14.533115204,-0.144312664866447,-0.053754560649395,-0.111937761306763
14.552673381,0.112243182957172,0.0415376126766205,-0.105829291045666
14.572232392,0.345586836338043,0.0476460866630077,-0.0777303129434586
14.591790465,0.400563091039658,0.00733016710728407,-0.027640838176012
14.61134786,0.234412640333176,-0.103844031691551,-0.00198525353334844
14.630906038,-0.11743538826704,-0.129499614238739,-0.000763559073675424
14.650465048,-0.301911264657974,0.0855186134576798,0.00290152453817427
14.670023121,-0.133317410945892,0.404380887746811,-0.00198525353334844
14.689580517,-0.0196998249739409,0.568087935447693,0.00656660785898566
14.709138642,-0.287250936031342,0.335965991020203,0.0762031972408295
14.728697652,-0.79791921377182,0.00366508355364203,0.200816035270691
14.748255777,-0.982395112514496,0.10750912129879,0.294886499643326
14.767813121,-0.488830506801605,0.309088706970215,0.145839780569077
14.787371298,0.316266179084778,0.228456869721413,-0.11682453751564
14.806930308,0.729198932647705,0.053754560649395,-0.227998733520508
14.826488433,0.61313796043396,-0.0476460866630077,-0.154697075486183
14.846045777,0.227082461118698,-0.0928487852215767,-0.00931542087346315
14.865603954,-0.0624591335654259,-0.189362645149231,0.0590994730591774
14.885162913,-0.0991099700331688,-0.316418886184692,0.0248920265585184
14.904721038,0.0267245676368475,-0.393385648727417,-0.0423011742532253
14.924278381,0.157445877790451,-0.279768049716949,-0.0459662564098835
14.943836558,0.222195684909821,-0.0806318372488022,0.0456608310341835
14.963395569,0.170884519815445,-0.0317640565335751,0.127514362335205
14.982953642,0.00717745535075665,-0.200357899069786,0.103080473840237
15.002511038,-0.176076725125313,-0.463022232055664,-0.0361927002668381
15.022069163,-0.217614337801933,-0.533880531787872,-0.20234315097332
15.041628173,-0.09666658192873,-0.354291409254074,-0.235328912734985
15.061186298,0.0401632077991962,-0.119726061820984,-0.121711313724518
15.080743642,0.0438282899558544,0.0561979487538338,0.0224486365914345
15.100301767,-0.0942231863737106,0.142938256263733,0.0652079433202744
15.119860777,-0.188293665647507,0.222348406910896,0.0468825288116932
15.139418902,-0.166303172707558,0.221126705408096,0.0187835525721312
15.158976246,-0.0526855774223805,0.0146603342145681,0.00412321882322431
15.178534423,0.175771296024323,-0.101400643587112,0.0358872748911381
15.198093381,0.360247164964676,0.122169449925423,0.11774080991745
15.217651506,0.416445106267929,0.315197199583054,0.210589587688446
15.23720885,0.236856028437614,0.304201930761337,0.238688573241234
15.256766975,-0.0380252413451672,0.119726061820984,0.147061482071877
15.276325985,-0.0600157417356968,-0.161263674497604,-0.0239757541567087
15.295884058,0.080479122698307,-0.109952509403229,-0.121711313724518
15.315441454,0.148894011974335,0.188140958547592,-0.105829291045666
15.334999579,0.184323161840439,0.300536841154099,-0.0410794764757156
15.35455859,0.185544848442078,0.163707062602043,-0.0423011742532253
15.374116663,0.169662833213806,-0.124612838029861,-0.124154701828957
15.393674006,0.142785549163818,-0.2565558552742,-0.136371657252312
15.413232183,0.0364981219172478,-0.101400643587112,-0.0361927002668381
15.432791142,-0.108883522450924,0.118504367768765,0.087198443710804
15.452349267,-0.141869276762009,0.257777541875839,0.109188944101334
15.47190661,-0.0563506595790386,0.240673825144768,0.0371089726686478
15.491464735,0.0865876004099846,0.131943002343178,-0.0679567605257034
15.511023746,0.222195684909821,0.0268772803246975,-0.136371657252312
15.530581819,0.307714313268662,-0.00733016710728407,-0.119267925620079
15.550139163,0.312601089477539,-0.0329857505857945,-0.0459662564098835
15.56969734,0.228304162621498,-0.112395897507668,0.0310004986822605
15.589256298,0.107356406748295,-0.210131451487541,0.0652079433202744
15.608814423,0.0108425384387374,-0.206466376781464,0.0835333615541458
15.628371767,-0.0514638833701611,-0.130721315741539,0.13973131775856
15.647929892,-0.13820418715477,-0.112395897507668,0.20448112487793
15.667488902,-0.199288919568062,-0.204022988677025,0.220363155007362
15.687046975,-0.156529605388641,-0.250447362661362,0.167830288410187
15.706604319,-0.0563506595790386,-0.239452123641968,0.0713164210319519
15.726162444,0.0230594836175442,-0.211353152990341,0.0187835525721312
15.745721454,0.148894011974335,-0.160041987895966,0.0248920265585184
15.765279527,0.208757057785988,-0.00610847258940339,0.0627645552158356
15.784836871,0.0670404881238937,0.122169449925423,0.0859767496585846
15.804394996,-0.134539112448692,0.0904053971171379,0.0334438867866993
15.823954006,-0.211505860090256,-0.0439810007810593,-0.11804623156786
15.843512079,-0.0636808276176453,-0.0928487852215767,-0.269536346197128
15.863069423,0.135455384850502,0.144159957766533,-0.260984480381012
15.882627548,0.0841442123055458,0.513111710548401,-0.0826170891523361
15.902186506,-0.428967475891113,0.663380146026611,0.150726556777954
15.921744631,-1.03248453140259,0.226013481616974,0.227693319320679
15.941301975,-1.03004121780396,-0.455692052841187,0.0603211671113968
15.9608601,-0.371547847986221,-0.665823519229889,-0.193791300058365
15.980419058,0.418888509273529,-0.306645333766937,-0.302522093057632
15.999977131,0.833042919635773,0.194249421358109,-0.130263179540634
16.019534475,0.680331110954285,0.452026963233948,0.140953004360199
16.0390926,0.164776042103767,0.230900257825851,0.253348886966705
16.05865161,-0.28602921962738,-0.21257483959198,0.151948258280754
16.078209683,-0.387429863214493,-0.423927992582321,-0.0068720318377018
16.097767027,-0.204175695776939,-0.298093467950821,-0.0129805039614439
16.117325152,-0.0392469353973866,0.0158820282667875,0.121405892074108
16.13688411,-0.0734543800354004,0.162485376000404,0.198372647166252
16.156442235,-0.193180441856384,0.0232121963053942,0.126292675733566
16.175999527,-0.255486875772476,-0.267551094293594,-0.0447445623576641
16.195557704,-0.178520113229752,-0.365286648273468,-0.169357404112816
16.215116663,0.0487150698900223,-0.151490122079849,-0.158362150192261
16.234674735,0.295497357845306,0.144159957766533,-0.0606265887618065
16.254232079,0.390789538621902,0.309088706970215,0.0163401644676924
16.273790204,0.295497357845306,0.280989736318588,0.00167983002029359
16.293349163,0.175771296024323,0.101400643587112,-0.078952006995678
16.312907235,0.126903519034386,-0.0977355614304543,-0.143701821565628
16.332464579,0.20264858007431,-0.226013481616974,-0.155918762087822
16.352022704,0.362690567970276,-0.208909764885902,-0.115602843463421
16.371581715,0.483638316392899,-0.0757450610399246,-0.0557398125529289
16.391139788,0.429883748292923,0.0965138673782349,-0.0105371149256825
16.410697079,0.299162447452545,0.151490122079849,-0.00198525353334844
16.430255204,0.242964491248131,0.00977355614304543,-0.0606265887618065
16.449814215,0.162332653999329,-0.0794101431965828,-0.107050985097885
16.469372288,-0.0978882759809494,-0.0586413368582726,-0.0520747303962708
16.488929631,-0.334897011518478,-0.144159957766533,0.0505476109683514
16.508487756,-0.309241414070129,-0.271216183900833,0.0859767496585846
16.528046715,-0.0526855774223805,-0.328635811805725,-0.0313059203326702
16.547604788,0.231969252228737,-0.194249421358109,-0.218225181102753
16.567162131,0.363912254571915,0.0757450610399246,-0.246324151754379
16.586720256,0.238077715039253,0.2565558552742,-0.147366896271706
16.606279215,-0.09666658192873,0.223570093512535,-0.0862821787595749
16.625837288,-0.332453608512878,0.0696365907788277,-0.154697075486183
16.645394631,-0.281142443418503,0.025655584409833,-0.237772300839424
16.664952756,-0.0306950751692057,0.0952921733260155,-0.251210927963257
16.684511715,0.218530610203743,0.182032480835915,-0.20356485247612
16.704069788,0.348030239343643,0.23456534743309,-0.133928254246712
16.723627131,0.330926507711411,0.201579600572586,-0.0887255668640137
16.743185256,0.183101460337639,0.113617591559887,-0.0777303129434586
16.762744215,0.0169510114938021,0.00977355614304543,-0.0471879504621029
16.782302288,-0.0477987974882126,-0.0171037241816521,0.0334438867866993
16.801859631,-0.0416903272271156,0.0329857505857945,0.115297421813011
16.821417756,-0.0441337153315544,0.0488677807152271,0.166608586907387
16.840976715,-0.0795628577470779,0.00733016710728407,0.193485870957375
16.860534788,-0.157751306891441,-0.00855186209082604,0.222806543111801
16.880092131,-0.227387890219688,0.0329857505857945,0.217919766902924
16.899650256,-0.183406889438629,0.0586413368582726,0.147061482071877
16.919209215,0.0865876004099846,0.0439810007810593,0.0212269425392151
16.938767288,0.384681075811386,0.0574196428060532,-0.0581832006573677
16.958324631,0.396898001432419,0.0427593067288399,-0.0740652307868004
16.977882756,0.0939177647233009,-0.0549762547016144,-0.0508530326187611
16.997441715,-0.24571330845356,-0.151490122079849,-0.0288625322282314
17.016999788,-0.330010235309601,-0.116060979664326,0.0566560849547386
17.036557079,-0.22616620361805,0.118504367768765,0.200816035270691
17.056115204,-0.24571330845356,0.36284327507019,0.303438365459442
17.075674215,-0.453401386737824,0.356734812259674,0.358414620161057
17.095232288,-0.646429121494293,0.136829793453217,0.448820024728775
17.114789579,-0.571905732154846,-0.0574196428060532,0.435381382703781
17.134347704,-0.143090963363647,-0.151490122079849,0.208146199584007
17.153906663,0.341921746730804,-0.0818535313010216,-0.00565033731982112
17.173464735,0.570378601551056,0.0733016729354858,-0.0288625322282314
17.193022079,0.50685054063797,0.144159957766533,0.0603211671113968
17.212580204,0.261289924383163,0.025655584409833,0.0994153916835785
17.232139163,-0.0355818532407284,-0.239452123641968,0.0823116675019264
17.251697235,-0.187071979045868,-0.40804597735405,0.0419957488775253
17.271254579,-0.107661828398705,-0.377503603696823,0.0224486365914345
17.290812704,0.0951394587755203,-0.248003989458084,0.0383306667208672
17.310371663,0.231969252228737,-0.0989572554826737,0.0627645552158356
17.329929735,0.261289924383163,-0.0781884491443634,0.0383306667208672
17.349487079,0.163554355502129,-0.123391143977642,-0.0374143943190575
17.369045204,0.0328330397605896,-0.119726061820984,-0.11804623156786
17.388604163,-0.0624591335654259,-0.0219905003905296,-0.165692314505577
17.408162235,-0.11743538826704,0.164928764104843,-0.147366896271706
17.427719579,-0.18096350133419,0.401937484741211,-0.100942507386208
17.447277704,-0.328788548707962,0.566866278648377,-0.0972774252295494
17.466836663,-0.507155954837799,0.400715798139572,-0.158362150192261
17.486394735,-0.507155954837799,0.045202698558569,-0.26587125658989
17.505952027,-0.165081471204758,-0.0781884491443634,-0.2903051674366
17.525510152,0.293053984642029,0.0952921733260155,-0.176687568426132
17.545069163,0.440879017114639,0.294428378343582,-0.00442864280194044
17.564627235,0.218530610203743,0.287098199129105,0.123849280178547
17.584184527,-0.218836024403572,-0.0378725305199623,0.15927842259407
17.603742652,-0.526703059673309,-0.482569336891174,0.0603211671113968
17.62330161,-0.328788548707962,-0.708582818508148,-0.140036731958389
17.642859683,0.0328330397605896,-0.406824260950089,-0.209673315286636
17.662417027,0.0682621821761131,0.0842969194054604,-0.0606265887618065
17.681975152,-0.105218440294266,0.218683317303658,0.0468825288116932
17.70153411,-0.103996746242046,0.083075225353241,-0.0581832006573677
17.721092183,0.191653326153755,-0.0219905003905296,-0.241437375545502
17.740649527,0.483638316392899,0.122169449925423,-0.2903051674366
17.760207652,0.428662061691284,0.357956498861313,-0.171800792217255
17.77976661,0.0633754059672356,0.403159201145172,-0.0386360883712769
17.799324683,-0.273812294006348,0.197914510965347,-0.00931542087346315
17.818882027,-0.327566832304001,-0.0134386401623487,-0.0606265887618065
17.838440152,-0.0991099700331688,-0.0977355614304543,-0.0936123430728912
17.85799911,0.147672325372696,-0.0781884491443634,-0.0545181185007095
17.877557183,0.234412640333176,-0.0733016729354858,0.0175618585199118
17.897114527,0.240521103143692,-0.153933510184288,0.0566560849547386
17.916672652,0.214865520596504,-0.252890765666962,0.0713164210319519
17.93623161,0.158667579293251,-0.271216183900833,0.112854033708572
17.955789683,0.0694838762283325,-0.174702316522598,0.20325942337513
17.975346975,-0.0319167710840702,-0.0928487852215767,0.289999723434448
17.9949051,-0.100331664085388,-0.101400643587112,0.288778036832809
18.014464058,-0.116213694214821,-0.167372152209282,0.215476363897324
18.034022131,-0.100331664085388,-0.21257483959198,0.150726556777954
18.053579475,-0.0587940476834774,-0.101400643587112,0.129957750439644
18.0731376,0.0364981219172478,0.0708582848310471,0.110410645604134
18.092696558,0.219752296805382,0.135608091950417,0.0615428611636162
18.112254631,0.446987479925156,0.166150450706482,0.0456608310341835
18.131811975,0.543501377105713,0.337187677621841,0.0700947195291519
18.1513701,0.443322390317917,0.542432367801666,0.0603211671113968
18.170929058,0.233190938830376,0.537545561790466,-0.0313059203326702
18.190487131,0.081700824201107,0.31886225938797,-0.22311195731163
18.210044475,-0.0893364101648331,0.134386390447617,-0.380710542201996
18.2296026,-0.685523331165314,0.109952509403229,-0.32939937710762
18.249161558,-1.33302140235901,0.167372152209282,-0.0826170891523361
18.268719631,-1.35867702960968,0.133164703845978,0.0798682793974876
18.288276975,-0.811357855796814,-0.102622337639332,0.0285571087151766
18.3078351,-0.0758977755904198,-0.34085276722908,-0.0826170891523361
18.327394058,0.490968495607376,-0.146603345870972,-0.0215323660522699
18.346952131,0.707208395004273,0.279768049716949,0.213032975792885
18.366509423,0.585038959980011,0.463022232055664,0.420721054077148
18.386067548,0.262511610984802,0.334744304418564,0.446376621723175
18.405626558,-0.057572353631258,0.00244338903576136,0.320542097091675
18.425184579,-0.232274666428566,-0.31886225938797,0.142174705862999
18.444741923,-0.154086217284203,-0.474017471075058,0.0371089726686478
18.464300048,0.0963611528277397,-0.452026963233948,0.0468825288116932
18.483859006,0.274728566408157,-0.324970752000809,0.0859767496585846
18.503417079,0.255181431770325,-0.272437870502472,0.0847550556063652
18.522974423,0.108578100800514,-0.293206691741943,0.0358872748911381
18.542532548,-0.00259610079228878,-0.307867020368576,-0.00931542087346315
18.562091506,0.00839914940297604,-0.252890765666962,0.00167983002029359
18.581649579,0.0914743766188622,-0.206466376781464,0.0273354146629572
18.601206923,0.144007235765457,-0.123391143977642,0.0151184694841504
18.620765048,0.187988236546516,0.0403159186244011,-0.0887255668640137
18.640324006,0.224639073014259,0.174702316522598,-0.273201435804367
18.659882079,0.168441131711006,0.153933510184288,-0.445460349321365
18.679439371,0.0511584579944611,0.053754560649395,-0.532200694084168
18.698997496,0.0328330397605896,0.0280989743769169,-0.540752530097961
18.718556454,0.20142687857151,0.0171037241816521,-0.469894260168076
18.738114527,0.432327151298523,-0.0366508364677429,-0.342838019132614
18.757671871,0.504407107830048,-0.0171037241816521,-0.18157434463501
18.777229996,0.427440375089645,0.045202698558569,-0.0105371149256825
18.796788954,0.223417386412621,0.0488677807152271,0.121405892074108
18.816347027,-0.0954448878765106,0.0109952501952648,0.22402822971344
18.835904371,-0.448514610528946,0.0268772803246975,0.335202425718308
18.855462444,-0.686745047569275,0.045202698558569,0.384070217609406
18.875021454,-0.574349164962769,-0.0122169451788068,0.280226171016693
18.894579475,-0.0954448878765106,-0.0989572554826737,0.049325916916132
18.914136819,0.455539345741272,-0.0867403075098991,-0.159583851695061
18.933694944,0.765849769115448,0.0415376126766205,-0.241437375545502
18.953253902,0.727977216243744,0.251669079065323,-0.22311195731163
18.972811975,0.538614571094513,0.499673068523407,-0.141258433461189
18.992369267,0.323596328496933,0.674375355243683,-0.0984991192817688
19.011927392,-0.042912021279335,0.517998456954956,-0.144923508167267
19.03148635,-0.548693537712097,0.112395897507668,-0.204786539077759
19.051044423,-0.79791921377182,-0.14904673397541,-0.193791300058365
19.070601767,-0.613443374633789,-0.168593838810921,-0.163248926401138
19.09015984,-0.183406889438629,-0.0586413368582726,-0.140036731958389
19.109718798,0.122016742825508,0.0439810007810593,-0.132706567645073
19.129276871,0.170884519815445,0.0268772803246975,-0.127819791436195
19.148834215,0.0633754059672356,-0.0781884491443634,-0.124154701828957
19.16839234,-0.0697892978787422,-0.217461630702019,-0.103385895490646
19.187951298,-0.171189948916435,-0.348182946443558,-0.0716218426823616
19.207509319,-0.209062471985817,-0.342074453830719,-0.0154238929972053
19.227066663,-0.196845531463623,-0.257777541875839,0.0603211671113968
19.246624788,-0.218836024403572,-0.183254182338715,0.127514362335205
19.266183746,-0.24571330845356,-0.169815540313721,0.171495363116264
19.285741819,-0.204175695776939,-0.111174203455448,0.182490617036819
19.30529911,-0.00748287886381149,-0.0244338903576136,0.133622840046883
19.324857235,0.282058715820313,0.130721315741539,0.0847550556063652
19.344416194,0.420110195875168,0.350626319646835,0.0945286154747009
19.363974267,0.37368580698967,0.448361873626709,0.120184198021889
19.38353161,0.35413870215416,0.382390379905701,0.0725381150841713
19.403089683,0.47997322678566,0.310310393571854,-0.0117588099092245
19.422648694,0.554496586322784,0.38361206650734,-0.0691784545779228
19.442206715,0.260068207979202,0.494786292314529,-0.0435228683054447
19.461764058,-0.397203415632248,0.216239929199219,0.0175618585199118
19.481322183,-0.558467090129852,-0.561979472637177,-0.0484096445143223
19.500881142,0.0230594836175442,-0.927266120910645,-0.242659077048302
19.520439215,0.580152213573456,-0.296871781349182,-0.284196674823761
19.539996506,0.600920975208283,0.499673068523407,0.00412321882322431
19.559554631,0.123238436877728,0.651163160800934,0.298551589250565
19.57911359,-0.453401386737824,0.183254182338715,0.364523112773895
19.598671663,-0.77837210893631,-0.316418886184692,0.214254677295685
19.618228954,-0.731947720050812,-0.442253410816193,0.0371089726686478
19.637787079,-0.448514610528946,-0.21257483959198,0.00900999736040831
19.657346038,-0.116213694214821,0.0525328628718853,0.112854033708572
19.67690411,0.0658187940716744,0.118504367768765,0.198372647166252
19.696461454,0.0584886260330677,-0.0818535313010216,0.127514362335205
19.716019579,-0.0135913519188762,-0.287098199129105,-0.0618482865393162
19.735578538,0.00839914940297604,-0.289541602134705,-0.154697075486183
19.75513661,0.120795048773289,-0.221126705408096,-0.135149955749512
19.774693902,0.268620073795319,-0.1282779276371,-0.0838387832045555
19.794252027,0.345586836338043,-0.0305423624813557,-0.0569615066051483
19.813810985,0.285723805427551,-0.00855186209082604,-0.0642916709184647
19.833369058,0.119573347270489,-0.111174203455448,-0.0691784545779228
19.852926402,-0.0441337153315544,-0.228456869721413,-0.0679567605257034
19.872484527,-0.0917797982692719,-0.251669079065323,-0.0862821787595749
19.892043485,0.0462716780602932,-0.17103722691536,-0.0594048947095871
19.911601558,0.274728566408157,-0.0403159186244011,0.0248920265585184
19.931158902,0.406671553850174,0.0610847249627113,0.0933069214224815
19.950716975,0.315044462680817,0.0464243926107883,0.0688730254769325
19.970275985,0.109799794852734,-0.124612838029861,-0.0288625322282314
19.989834058,-0.0331384651362896,-0.196692824363709,-0.0972774252295494
20.00939135,-0.130874022841454,0.0134386401623487,-0.0471879504621029
20.028949475,-0.193180441856384,0.184475868940353,0.0310004986822605
20.048508433,-0.215170949697495,0.135608091950417,0.0248920265585184
20.068066506,-0.107661828398705,0.0109952501952648,-0.0642916709184647
20.08762385,0.163554355502129,0.0623064190149307,-0.18157434463501
20.107181975,0.389567852020264,0.288319915533066,-0.217003494501114
20.126740985,0.362690567970276,0.482569336891174,-0.173022478818893
20.146299058,0.0450499840080738,0.453248679637909,-0.107050985097885
20.16585635,-0.321458369493485,0.224791795015335,-0.114381149411201
20.185414475,-0.414307147264481,0.00244338903576136,-0.212116703391075
20.204973485,-0.211505860090256,-0.102622337639332,-0.317182451486588
20.224531558,0.0364981219172478,-0.0171037241816521,-0.313517361879349
20.244088902,0.179436385631561,0.164928764104843,-0.201121464371681
20.263647027,0.136677071452141,0.21501824259758,-0.0826170891523361
20.283205985,0.0255028735846281,0.0342074483633041,-0.0496313385665417
20.302764058,-0.0294733811169863,-0.139273181557655,-0.0679567605257034
20.322321402,-0.00626118434593082,-0.134386390447617,-0.00809372588992119
20.341879527,0.0621537081897259,-0.0171037241816521,0.116519115865231
20.361438538,0.0584886260330677,0.0195471122860909,0.195929259061813
20.38099661,-0.0649025216698647,-0.0977355614304543,0.199594348669052
20.400553954,-0.256708562374115,-0.196692824363709,0.172717064619064
20.420112079,-0.341005474328995,-0.189362645149231,0.161721810698509
20.43967109,-0.238383144140244,-0.0928487852215767,0.151948258280754
20.459229163,0.0682621821761131,-0.0268772803246975,0.110410645604134
20.478786506,0.431105464696884,0.00855186209082604,0.0688730254769325
20.498344631,0.530062735080719,0.112395897507668,0.0652079433202744
20.51790359,0.253959745168686,0.194249421358109,0.0688730254769325
20.537461715,-0.125987246632576,0.232121959328651,0.0126750804483891
20.557019058,-0.049020491540432,0.284654825925827,-0.104607589542866
20.576577183,0.323596328496933,0.417819529771805,-0.168135702610016
20.596136194,0.381015986204147,0.55098420381546,-0.0948340371251106
20.615694267,-0.0710109919309616,0.458135455846787,0.114075727760792
20.63525161,-0.690410137176514,0.131943002343178,0.232580095529556
20.654809735,-0.855338871479034,-0.271216183900833,0.0444391369819641
20.674368746,-0.35322242975235,-0.624285876750946,-0.264649569988251
20.693926819,0.334591597318649,-0.419041216373444,-0.281753301620483
20.713484163,0.625354886054993,0.119726061820984,-0.0532964244484901
20.73304234,0.41766682267189,0.346961230039597,0.154391646385193
20.752601298,-0.0587940476834774,0.00733016710728407,0.13973131775856
20.772159423,-0.400868505239487,-0.354291409254074,0.00167983002029359
20.791716767,-0.356887519359589,-0.419041216373444,-0.0704001486301422
20.811274892,-0.0746760740876198,-0.241895511746407,0.00534491334110498
20.830833902,0.200205191969872,-0.0488677807152271,0.122627586126328
20.850392027,0.225860774517059,-0.053754560649395,0.15927842259407
20.869949371,0.0291679557412863,-0.19180603325367,0.0713164210319519
20.889507496,-0.18096350133419,-0.280989736318588,-0.0581832006573677
20.909066506,-0.260373651981354,-0.195471122860909,-0.113159455358982
20.928624631,-0.199288919568062,-0.00488677807152271,-0.0850604772567749
20.948181975,-0.0978882759809494,0.0977355614304543,-0.0361927002668381
20.9677401,-0.0771194696426392,0.0733016729354858,-0.00931542087346315
20.98729911,-0.182185187935829,0.0500894747674465,-0.0129805039614439
21.006857235,-0.311684817075729,0.0818535313010216,-0.027640838176012
21.026414579,-0.349557340145111,0.0879620015621185,-0.0545181185007095
21.045972756,-0.178520113229752,0.0219905003905296,-0.0337493121623993
21.065531767,0.0755923464894295,-0.0549762547016144,0.0517693050205708
21.08508984,0.0218377895653248,0.0146603342145681,0.107967250049114
21.104647235,-0.265260428190231,0.0867403075098991,0.110410645604134
21.12420536,-0.454623073339462,0.0207688063383102,0.0652079433202744
21.143764371,-0.37276953458786,-0.166150450706482,-0.0215323660522699
21.163322496,-0.15897299349308,-0.182032480835915,-0.0410794764757156
21.18287984,-0.165081471204758,0.0806318372488022,0.0688730254769325
21.202438017,-0.297024488449097,0.189362645149231,0.162943512201309
21.221997027,-0.22616620361805,0.0183254182338715,0.0700947195291519
21.241555152,0.113464877009392,-0.232121959328651,-0.142480120062828
21.261112496,0.517845749855042,-0.241895511746407,-0.26831465959549
21.280670673,0.693769752979279,-0.0195471122860909,-0.208451628684998
21.300229683,0.505628824234009,0.239452123641968,-0.0581832006573677
21.319787756,0.106134712696075,0.162485376000404,-0.00442864280194044
21.339345152,-0.161416381597519,-0.175924003124237,-0.102164201438427
21.358903329,-0.152864530682564,-0.27732464671135,-0.186461120843887
21.37846234,0.0413849018514156,-0.0561979487538338,-0.141258433461189
21.398020413,0.291832268238068,0.129499614238739,-0.0251974500715733
21.417577808,0.426218688488007,0.0977355614304543,0.0285571087151766
21.437135985,0.433548837900162,0,-0.00198525353334844
21.456694996,0.368799030780792,-0.0561979487538338,-0.0740652307868004
21.476253121,0.26984179019928,-0.0232121963053942,-0.0936123430728912
21.495810465,0.128125205636024,0.0219905003905296,-0.0251974500715733
21.515368642,-0.0148130459710956,-0.00733016710728407,0.0627645552158356
21.534927652,-0.110105216503143,-0.0733016729354858,0.101858779788017
21.554485777,-0.184628590941429,-0.0745233669877052,0.0920852273702622
21.574043121,-0.233496367931366,0.00244338903576136,0.0823116675019264
21.593601298,-0.265260428190231,0.0940704792737961,0.104302167892456
21.613160308,-0.262817025184631,0.133164703845978,0.120184198021889
21.632718433,-0.102775052189827,0.0464243926107883,0.0945286154747009
21.652275829,0.119573347270489,0.0232121963053942,0.0700947195291519
21.671833954,0.167219430208206,0.108730815351009,0.0933069214224815
21.691393017,0.0572669319808483,0.109952509403229,0.123849280178547
21.71095109,0.0413849018514156,-0.0879620015621185,0.0725381150841713
21.730508485,0.228304162621498,-0.218683317303658,0.000458135444205254
21.750066663,0.26739838719368,0.0879620015621185,0.0700947195291519
21.769625673,-0.101553358137608,0.552205920219421,0.252127200365067
21.789183798,-0.685523331165314,0.441031724214554,0.326650559902191
21.808741194,-0.827239871025085,-0.257777541875839,0.166608586907387
21.828299319,-0.254265159368515,-0.693922460079193,-0.119267925620079
21.847858381,0.439657300710678,-0.367730051279068,-0.219446882605553
21.867416454,0.67055755853653,0.172258928418159,-0.0691784545779228
21.88697385,0.366355657577515,0.290763288736343,0.049325916916132
21.906532027,-0.0563506595790386,0.0195471122860909,-0.0166455879807472
21.926091038,-0.278699070215225,-0.228456869721413,-0.131484866142273
21.945649163,-0.177298411726952,-0.246782287955284,-0.165692314505577
21.965206558,0.113464877009392,-0.113617591559887,-0.135149955749512
21.984764735,0.294275671243668,0.00855186209082604,-0.0801737010478973
22.004323746,0.195318415760994,0.0305423624813557,-0.0532964244484901
22.023881871,-0.0783411636948586,-0.0940704792737961,-0.109494373202324
22.043439215,-0.297024488449097,-0.180810794234276,-0.165692314505577
22.062997392,-0.325123459100723,-0.100178949534893,-0.146145209670067
22.082556402,-0.201732307672501,0.0586413368582726,-0.0997208133339882
22.102114527,-0.0832279399037361,0.164928764104843,-0.0862821787595749
22.121671923,-0.0868930220603943,0.144159957766533,-0.0984991192817688
22.1412301,-0.167524859309196,0.0598630309104919,-0.11804623156786
22.16078911,-0.227387890219688,0.00977355614304543,-0.131484866142273
22.180347235,-0.172411635518074,-0.0427593067288399,-0.124154701828957
22.199904631,0.00473406631499529,-0.311532109975815,-0.102164201438427
22.219462808,0.235634326934814,-0.626729309558868,-0.0850604772567749
22.239021819,0.440879017114639,-0.499673068523407,0.00778830237686634
22.258579944,0.576487123966217,-0.10628741979599,0.156835034489632
22.27813734,0.542279660701752,0.0635281130671501,0.166608586907387
22.297695517,0.333369880914688,-0.185697570443153,-0.0215323660522699
22.317254527,0.114686571061611,-0.324970752000809,-0.242659077048302
22.336812652,-0.0734543800354004,-0.0464243926107883,-0.249989241361618
22.356370048,-0.182185187935829,0.201579600572586,-0.127819791436195
22.375928225,-0.135760799050331,0.158820286393166,-0.0679567605257034
22.395487235,0.0279462616890669,0.162485376000404,-0.0850604772567749
22.41504536,0.249072968959808,0.27732464671135,-0.103385895490646
22.434602756,0.454317659139633,0.356734812259674,-0.078952006995678
22.454160933,0.556939959526062,0.353069722652435,-0.0361927002668381
22.473719944,0.48241662979126,0.368951737880707,0.0224486365914345
22.493278069,0.211200445890427,0.388498842716217,0.0969720035791397
22.512835465,-0.201732307672501,0.329857528209686,0.143396392464638
22.532393642,-0.553580343723297,0.260220944881439,0.123849280178547
22.551952652,-0.690410137176514,0.211353152990341,0.0664296373724937
22.571510777,-0.579235911369324,0.117282673716545,0.013896775431931
22.591068173,-0.271368891000748,0.0586413368582726,-0.0166455879807472
22.61062635,-0.00259610079228878,0.135608091950417,0.0248920265585184
22.63018536,0.0511584579944611,0.195471122860909,0.0920852273702622
22.649743485,-0.0477987974882126,0.0989572554826737,0.11774080991745
22.669300881,-0.154086217284203,-0.076966755092144,0.121405892074108
22.688859058,-0.205397397279739,-0.216239929199219,0.166608586907387
22.708418069,-0.200510606169701,-0.228456869721413,0.236245170235634
22.727976194,-0.149199441075325,-0.123391143977642,0.270452618598938
22.74753359,-0.0954448878765106,-0.0745233669877052,0.235023483633995
22.767091767,-0.0832279399037361,-0.083075225353241,0.170273676514626
22.786650829,-0.144312664866447,-0.0598630309104919,0.149504870176315
22.806208954,-0.255486875772476,-0.0720799788832665,0.153169944882393
22.825766298,-0.273812294006348,-0.173480615019798,0.0933069214224815
22.845324579,-0.0856713280081749,-0.21379654109478,0.0163401644676924
22.864883538,0.151337414979935,-0.124612838029861,0.00290152453817427
22.884441663,0.242964491248131,0.0500894747674465,0.0652079433202744
22.903999058,0.211200445890427,0.134386390447617,0.11774080991745
22.923557235,0.111021488904953,0.0244338903576136,0.0322221927344799
22.943116246,-0.0905581042170525,0.0464243926107883,-0.11682453751564
22.962674371,-0.28602921962738,0.31886225938797,-0.113159455358982
22.982231767,-0.293359398841858,0.46913069486618,0.0566560849547386
23.001789944,-0.168746560811996,0.134386390447617,0.0884201377630234
23.021348954,0.114686571061611,-0.251669079065323,-0.130263179540634
23.040907079,0.49952033162117,-0.2541124522686,-0.326956003904343
23.060464475,0.742637574672699,0.0158820282667875,-0.236550599336624
23.080022652,0.693769752979279,0.150268420577049,0.0163401644676924
23.099581663,0.346808522939682,0.0293206684291363,0.232580095529556
23.11913984,-0.136982500553131,-0.122169449925423,0.318098723888397
23.138697183,-0.497382372617722,-0.182032480835915,0.289999723434448
23.15825536,-0.532811522483826,-0.202801287174225,0.231358394026756
23.177814423,-0.283585846424103,-0.177145704627037,0.20448112487793
23.197372548,-0.0368035472929478,-0.0574196428060532,0.22402822971344
23.216929944,-0.034360159188509,0.0207688063383102,0.222806543111801
23.236488121,-0.182185187935829,-0.0500894747674465,0.151948258280754
23.256047131,-0.256708562374115,-0.131943002343178,0.0468825288116932
23.275605256,-0.119878776371479,-0.122169449925423,-0.019088976085186
23.295162652,0.107356406748295,0.00244338903576136,-0.0313059203326702
23.314720829,0.212422132492065,0.119726061820984,-0.0166455879807472
23.33427984,0.198983490467072,0.124612838029861,-0.0337493121623993
23.353837965,0.181879773736,0,-0.137593343853951
23.37339536,0.213643833994865,-0.119726061820984,-0.254876017570496
23.392953538,0.216087222099304,-0.248003989458084,-0.297635316848755
23.412512548,0.0474933758378029,-0.34085276722908,-0.270758032798767
23.432070725,-0.156529605388641,-0.201579600572586,-0.122933007776737
23.451628069,-0.167524859309196,0.00122169451788068,0.15805672109127
23.471186246,0.0145076224580407,-0.100178949534893,0.456150203943253
23.490745308,0.14034216105938,-0.134386390447617,0.556329131126404
23.510303433,0.184323161840439,0.0268772803246975,0.453706800937653
23.529860829,0.410336643457413,0.0500894747674465,0.33275905251503
23.549419006,0.559383392333984,0.100178949534893,0.313211917877197
23.568978017,0.372464120388031,0.2541124522686,0.396287173032761
23.588536142,0.0731489583849907,0.202801287174225,0.379183441400528
23.608093538,-0.00626118434593082,-0.118504367768765,0.161721810698509
23.627651715,0.206313654780388,-0.243117213249207,-0.135149955749512
23.647210725,0.435992240905762,0.0207688063383102,-0.249989241361618
23.66676885,0.426218688488007,0.283433139324188,-0.187682822346687
23.686326246,0.168441131711006,0.2541124522686,-0.158362150192261
23.705884423,-0.233496367931366,0.249225676059723,-0.0826170891523361
23.725443433,-0.764933466911316,0.367730051279068,0.0981936976313591
23.745001558,-1.15098893642426,0.23578704893589,0.242353647947311
23.764558954,-0.939635813236237,-0.131943002343178,0.257013976573944
23.784117131,-0.326345145702362,-0.257777541875839,0.183712318539619
23.803676194,0.0914743766188622,-0.0268772803246975,0.209367901086807
23.823234319,0.0780357345938683,0.152711808681488,0.305881768465042
23.842791663,-0.178520113229752,-0.0342074483633041,0.275339394807816
23.862349944,-0.213949248194695,-0.304201930761337,0.0798682793974876
23.881908902,-0.00381779531016946,-0.263886004686356,-0.0704001486301422
23.901467027,0.234412640333176,-0.0476460866630077,-0.126598089933395
23.921024423,0.340700060129166,0.0671931952238083,-0.0972774252295494
23.940582548,0.283280402421951,0.0439810007810593,0.0261137206107378
23.96014161,0.0853659063577652,0.00733016710728407,0.175160452723503
23.979699735,-0.198067218065262,0.0268772803246975,0.243575349450111
23.999257131,-0.384986490011215,0.0561979487538338,0.226471617817879
24.018815308,-0.339783787727356,0.0329857505857945,0.188599094748497
24.038374319,-0.0820062458515167,-0.00122169451788068,0.161721810698509
24.057932444,0.14034216105938,0.0329857505857945,0.181268930435181
24.07748984,0.0401632077991962,0.130721315741539,0.263122469186783
24.097047965,-0.235939756035805,0.141716569662094,0.35474956035614
24.116607027,-0.342227190732956,-0.0500894747674465,0.344975978136063
24.136165152,-0.173633337020874,-0.310310393571854,0.291221439838409
24.155722496,0.0181727055460215,-0.338409394025803,0.302216678857803
24.175280673,-0.0270299911499023,-0.0317640565335751,0.420721054077148
24.194839735,-0.256708562374115,0.219905018806458,0.483027458190918
24.21439786,-0.425302416086197,-0.119726061820984,0.37185326218605
24.233955204,-0.39476004242897,-0.432479858398438,0.292443126440048
24.253513381,-0.215170949697495,-0.219905018806458,0.242353647947311
24.273072392,0.327261418104172,-0.140494868159294,0.129957750439644
24.292630517,0.880689024925232,-0.309088706970215,-0.00809372588992119
24.312187913,0.853811740875244,-0.437366634607315,-0.0471879504621029
24.33174609,0.211200445890427,-0.345739543437958,0.15927842259407
24.3513051,-0.551136910915375,-0.349404633045197,0.506239652633667
24.370863225,-0.92375373840332,-0.51188999414444,0.766460597515106
24.390420621,-0.948187649250031,-0.371395140886307,0.94849306344986
24.409978746,-0.804027676582336,-0.0109952501952648,1.08043611049652
24.429537756,-0.563353896141052,0.273659586906433,0.959488332271576
24.449095881,-0.358109205961227,0.276102960109711,0.660173177719116
24.468653277,-0.221279412508011,0.218683317303658,0.494022727012634
24.488211454,-0.0710109919309616,0.217461630702019,0.530673563480377
24.507770465,0.183101460337639,0.222348406910896,0.574654579162598
24.52732859,0.560605049133301,0.160041987895966,0.43660306930542
24.546885933,0.928335130214691,0.0500894747674465,0.194707557559013
24.56644411,1.06638658046722,0.101400643587112,0.129957750439644
24.586003121,0.936886966228485,0.278546363115311,0.257013976573944
24.605561246,0.567935228347778,0.337187677621841,0.33031564950943
24.625118642,0.252738058567047,0.251669079065323,0.247240424156189
24.644676767,0.261289924383163,0.0952921733260155,0.188599094748497
24.664235777,0.566713571548462,-0.0244338903576136,0.324207186698914
24.683793902,0.646123707294464,0.076966755092144,0.570989489555359
24.703351298,0.310157686471939,0.306645333766937,0.716371119022369
24.722909423,-0.0319167710840702,0.426371395587921,0.669946730136871
24.742468433,0.00717745535075665,0.194249421358109,0.494022727012634
24.762026558,0.466534584760666,-0.217461630702019,0.292443126440048
24.781583902,0.850146651268005,-0.152711808681488,0.182490617036819
24.801142079,0.818382620811462,0.202801287174225,0.104302167892456
24.82070109,0.355360388755798,0.44958359003067,0.193485870957375
24.840259215,-0.326345145702362,0.453248679637909,0.353527843952179
24.859816558,-0.398425132036209,0.197914510965347,0.266787528991699
24.879374735,0.454317659139633,0.0403159186244011,0.0468825288116932
24.898933746,0.980867981910706,0.431258171796799,0.114075727760792
24.918491819,0.589925765991211,0.833195686340332,0.343754291534424
24.938049215,-0.171189948916435,0.676818788051605,0.445154935121536
24.957607392,-0.722174167633057,0.269994497299194,0.37429666519165
24.97716635,-0.840678513050079,0.179589092731476,0.369409888982773
24.996724475,-0.60977828502655,0.279768049716949,0.509904742240906
25.016281819,-0.250600099563599,0.287098199129105,0.651621341705322
25.035839996,-0.0331384651362896,0.166150450706482,0.644291162490845
25.055399006,0.034054733812809,-0.0195471122860909,0.539225399494171
25.074957079,0.115908265113831,-0.0891837030649185,0.48058408498764
25.094514475,0.228304162621498,-0.0232121963053942,0.501352906227112
25.1140726,0.294275671243668,0.0195471122860909,0.520900011062622
25.13363161,0.282058715820313,-0.00977355614304543,0.481805771589279
25.153189735,0.0865876004099846,-0.0720799788832665,0.380405128002167
25.172747079,-0.320236682891846,-0.0684148967266083,0.254570603370667
25.192305204,-0.709957242012024,0.0195471122860909,0.255792289972305
25.211864215,-0.916423618793488,-0.0378725305199623,0.429272919893265
25.23142234,-0.763711810112,-0.357956498861313,0.585649788379669
25.250979683,-0.283585846424103,-0.348182946443558,0.665059924125671
25.270537808,0.119573347270489,0.112395897507668,0.773790776729584
25.290096819,0.120795048773289,0.470352381467819,0.957044959068298
25.309654944,-0.174855023622513,0.392163932323456,1.04622864723206
25.329212288,-0.256708562374115,0.103844031691551,0.888630032539368
25.348770413,0.0499367639422417,-0.0623064190149307,0.585649788379669
25.368329423,0.362690567970276,0.0342074483633041,0.459815263748169
25.387887548,0.3089359998703,0.283433139324188,0.517234921455383
25.407444892,-0.24693500995636,0.438588321208954,0.633295893669128
25.427003017,-0.763711810112,0.2565558552742,0.564881026744843
25.446562027,-0.43751934170723,-0.0427593067288399,0.319320410490036
25.4661201,0.500742018222809,-0.00122169451788068,0.180047228932381
25.485677444,0.90756630897522,0.384833782911301,0.307103455066681
25.505235621,0.527619302272797,0.554649293422699,0.479362398386002
25.524794631,-0.107661828398705,0.249225676059723,0.428051203489304
25.544352704,-0.43751934170723,-0.123391143977642,0.243575349450111
25.563910048,-0.345892250537872,-0.179589092731476,0.208146199584007
25.583468225,-0.0758977755904198,0.0109952501952648,0.369409888982773
25.603027183,0.101247936487198,0.164928764104843,0.625965714454651
25.622585308,0.042606595903635,0.123391143977642,0.746913492679596
25.642142652,-0.166303172707558,-0.111174203455448,0.676055192947388
25.661700777,-0.323901772499085,-0.298093467950821,0.550220668315888
25.681259788,-0.303132951259613,-0.229678571224213,0.494022727012634
25.700817913,-0.122322164475918,-0.00488677807152271,0.540447115898132
25.720375256,0.0291679557412863,0.145381644368172,0.660173177719116
25.739933381,-0.0441337153315544,0.19302773475647,0.690715551376343
25.759492392,-0.187071979045868,0.0781884491443634,0.612527072429657
25.779050465,-0.165081471204758,-0.0867403075098991,0.489135950803757
25.798607808,0.0145076224580407,-0.0647498071193695,0.445154935121536
25.818165985,0.220973998308182,0.0158820282667875,0.531895279884338
25.837724944,0.384681075811386,0.0965138673782349,0.643069446086884
25.857283069,0.444544106721878,0.178367406129837,0.66872501373291
25.876840413,0.340700060129166,0.133164703845978,0.607640326023102
25.896398538,0.147672325372696,0.0183254182338715,0.501352906227112
25.915957548,0.0255028735846281,0.0500894747674465,0.468367129564285
25.935515621,0.0120642334222794,0.103844031691551,0.533116936683655
25.955073017,0.0597103200852871,0.0574196428060532,0.558772504329681
25.974631142,-0.0587940476834774,0.0623064190149307,0.539225399494171
25.994190152,-0.306798040866852,-0.00244338903576136,0.491579324007034
26.013748225,-0.311684817075729,-0.178367406129837,0.401173949241638
26.033305569,0.0731489583849907,-0.268772780895233,0.26800924539566
26.052863746,0.56427013874054,-0.131943002343178,0.175160452723503
26.072422704,0.862363636493683,0.0317640565335751,0.150726556777954
26.091980829,0.993084907531738,0.120947755873203,0.171495363116264
26.111538173,0.92711341381073,0.158820286393166,0.275339394807816
26.131096298,0.541057944297791,0.146603345870972,0.441489845514298
26.150655308,-0.161416381597519,0.0708582848310471,0.550220668315888
26.170213381,-0.818688035011292,-0.125834539532661,0.519678294658661
26.189770725,-1.1363285779953,-0.553427636623383,0.340089201927185
26.209328902,-1.07646560668945,-0.999346137046814,0.0725381150841713
26.22888786,-0.779593825340271,-0.995681047439575,-0.0361927002668381
26.248445933,-0.397203415632248,-0.42759308218956,0.211811289191246
26.268003329,0.0536018460988998,0.196692824363709,0.616192162036896
26.287561454,0.329704821109772,0.491121202707291,0.829988718032837
26.307120465,0.295497357845306,0.415376126766205,0.768903970718384
26.326678538,0.0670404881238937,0.23456534743309,0.630852520465851
26.346235881,-0.107661828398705,0.230900257825851,0.616192162036896
26.365794006,-0.113770298659801,0.279768049716949,0.682163655757904
26.385353017,-0.0392469353973866,0.2541124522686,0.715149402618408
26.40491109,-0.0881147161126137,0.161263674497604,0.628409147262573
26.424468485,-0.204175695776939,0.139273181557655,0.544112205505371
26.44402661,-0.216392636299133,0.166150450706482,0.5282301902771
26.463585569,-0.0734543800354004,0.263886004686356,0.553885757923126
26.483143694,0.13912045955658,0.379947006702423,0.56732439994812
26.502701038,0.296719044446945,0.432479858398438,0.54289048910141
26.522259163,0.333369880914688,0.311532109975815,0.513569831848145
26.541818173,0.255181431770325,0.0720799788832665,0.470810532569885
26.561376246,0.112243182957172,-0.0623064190149307,0.381626814603806
26.58093359,-0.136982500553131,0.00977355614304543,0.288778036832809
26.600491767,-0.483943730592728,0.157598599791527,0.270452618598938
26.620050725,-0.856560587882996,-0.00977355614304543,0.186155706644058
26.63960885,-1.28293192386627,-0.406824260950089,0.00290152453817427
26.659166194,-1.46252107620239,-0.597408592700958,-0.155918762087822
26.678724319,-1.0532534122467,-0.439810037612915,-0.22433365881443
26.698283277,-0.205397397279739,-0.0390942245721817,-0.186461120843887
26.717841402,0.619246423244476,0.145381644368172,-0.019088976085186
26.737398746,1.04928290843964,0.206466376781464,0.171495363116264
26.756956871,1.00530183315277,0.273659586906433,0.336424142122269
26.776515881,0.494633555412293,0.14782503247261,0.396287173032761
26.796073954,-0.0930014923214912,-0.111174203455448,0.35474956035614
26.815631298,-0.254265159368515,-0.183254182338715,0.30832514166832
26.835189423,-0.0477987974882126,0.0818535313010216,0.382848531007767
26.854748433,0.126903519034386,0.382390379905701,0.517234921455383
26.874306506,0.0731489583849907,0.433701545000076,0.550220668315888
26.89386385,-0.119878776371479,0.130721315741539,0.447598338127136
26.913422027,-0.209062471985817,-0.108730815351009,0.289999723434448
26.932980985,-0.114992000162601,-0.0525328628718853,0.210589587688446
26.95253911,0.0462716780602932,0.114839285612106,0.24479703605175
26.972096454,0.0609320141375065,0.2541124522686,0.318098723888397
26.991654579,-0.0807845517992973,0.223570093512535,0.331537336111069
27.011213538,-0.206619083881378,0.111174203455448,0.276561111211777
27.030771663,-0.222501114010811,0.0757450610399246,0.24479703605175
27.050329006,-0.157751306891441,0.113617591559887,0.266787528991699
27.069887131,-0.0294733811169863,0.111174203455448,0.311990231275558
27.089446142,0.150115713477135,0.0684148967266083,0.294886499643326
27.109004215,0.327261418104172,0.0378725305199623,0.239910259842873
27.128561558,0.329704821109772,0.0500894747674465,0.209367901086807
27.148119683,0.156224191188812,0.123391143977642,0.24479703605175
27.167678642,-0.111326910555363,0.0806318372488022,0.277782797813416
27.187236767,-0.238383144140244,-0.218683317303658,0.181268930435181
27.20679411,-0.152864530682564,-0.450805276632309,-0.0117588099092245
27.226352235,-0.0306950751692057,-0.312753796577454,-0.072843536734581
27.245911246,-0.0917797982692719,0.0965138673782349,0.0285571087151766
27.265469319,-0.360552608966827,0.401937484741211,0.150726556777954
27.285026663,-0.569462358951569,0.295650064945221,0.111632339656353
27.304584788,-0.430189192295074,-0.0293206684291363,-0.0471879504621029
27.324143746,-0.00503948982805014,0.00733016710728407,-0.0679567605257034
27.343701871,0.233190938830376,0.332300901412964,0.0933069214224815
27.363259215,0.103691324591637,0.586413383483887,0.261900752782822
27.38281734,-0.206619083881378,0.470352381467819,0.227693319320679
27.402376298,-0.430189192295074,0.145381644368172,0.0236703306436539
27.421934371,-0.347113966941834,-0.0329857505857945,-0.148588597774506
27.441491715,0.00717745535075665,0.0305423624813557,-0.18279604613781
27.46104984,0.305270910263062,0.142938256263733,-0.133928254246712
27.48060885,0.39567631483078,0.166150450706482,-0.0875038728117943
27.500166923,0.307714313268662,0.0158820282667875,-0.111937761306763
27.519724267,0.169662833213806,-0.202801287174225,-0.198678076267242
27.539282392,0.144007235765457,-0.278546363115311,-0.248767539858818
27.55884135,0.225860774517059,-0.1282779276371,-0.166914016008377
27.578399475,0.294275671243668,0.0525328628718853,-0.0166455879807472
27.597956767,0.203870266675949,0.0158820282667875,0.063986249268055
27.617514892,0.0474933758378029,-0.125834539532661,0.0627645552158356
27.637073902,-0.0441337153315544,-0.112395897507668,0.0432174429297447
27.656631975,0.0316113457083702,0.0317640565335751,0.0505476109683514
27.676189319,0.211200445890427,0.125834539532661,0.0737598091363907
27.695747444,0.296719044446945,0.0891837030649185,0.0542126931250095
27.715306402,0.277171939611435,0.0513111688196659,0.00412321882322431
27.734864475,0.277171939611435,0.1282779276371,-0.0264191441237927
27.754421819,0.285723805427551,0.221126705408096,-0.0594048947095871
27.773979944,0.227082461118698,0.248003989458084,-0.133928254246712
27.793538902,-0.0441337153315544,0.280989736318588,-0.100942507386208
27.813096975,-0.624438583850861,0.346961230039597,0.0566560849547386
27.832654319,-1.1180032491684,0.184475868940353,0.0945286154747009
27.852212444,-0.877329349517822,-0.206466376781464,-0.144923508167267
27.871771402,0.0621537081897259,-0.444696813821793,-0.462564080953598
27.891329475,0.990641534328461,-0.261442631483078,-0.515096962451935
27.910886819,1.53796064853668,0.0733016729354858,-0.33184278011322
27.930444944,1.55750775337219,0.372616827487946,-0.141258433461189
27.950003902,1.00896692276001,0.370173424482346,-0.107050985097885
27.969561975,0.231969252228737,0.0109952501952648,-0.201121464371681
27.989119319,-0.293359398841858,-0.317640572786331,-0.263427883386612
28.008677392,-0.452179670333862,-0.304201930761337,-0.170579090714455
28.028236402,-0.327566832304001,-0.0610847249627113,0.0212269425392151
28.047794475,-0.16019469499588,0.109952509403229,0.161721810698509
28.067351767,-0.163859784603119,0.0610847249627113,0.183712318539619
28.086909892,-0.279920756816864,-0.130721315741539,0.107967250049114
28.10646885,-0.384986490011215,-0.23334364593029,0.0383306667208672
28.126026923,-0.402090221643448,-0.200357899069786,0.0163401644676924
28.145584267,-0.306798040866852,-0.0965138673782349,0.0212269425392151
28.16514234,-0.16019469499588,-0.0500894747674465,0.0444391369819641
28.18470135,-0.127208948135376,-0.0500894747674465,0.057877779006958
28.204259371,-0.189515367150307,-0.0268772803246975,0.0371089726686478
28.223816715,-0.292137712240219,0.0415376126766205,-0.0178672820329666
28.24337484,-0.305576354265213,0.0122169451788068,-0.0704001486301422
28.262933798,-0.157751306891441,-0.0146603342145681,-0.0765086188912392
28.282491819,0.0206160955131054,0.0500894747674465,-0.00931542087346315
28.302049163,0.0694838762283325,0.113617591559887,0.0652079433202744
28.321607288,0.0633754059672356,-0.00244338903576136,0.0566560849547386
28.341166246,0.0621537081897259,-0.230900257825851,-0.0215323660522699
28.360724319,0.0658187940716744,-0.389720559120178,-0.0447445623576641
28.38028161,0.214865520596504,-0.470352381467819,-0.0532964244484901
28.399839735,0.520289123058319,-0.51188999414444,-0.186461120843887
28.419398694,0.758519589900971,-0.46668729186058,-0.370936989784241
28.438956715,0.720647037029266,-0.271216183900833,-0.428356647491455
28.458514058,0.481194913387299,0.0354291424155235,-0.279309898614883
28.478072183,0.28694549202919,0.357956498861313,-0.147366896271706
28.49763109,0.00351237179711461,0.645054697990418,-0.164470627903938
28.517189163,-0.397203415632248,0.598630309104919,-0.207229927182198
28.536746454,-0.584122717380524,0.316418886184692,-0.168135702610016
28.556304579,-0.421637326478958,0.144159957766533,-0.102164201438427
28.575863538,-0.121100470423698,0.269994497299194,-0.030084228143096
28.59542161,0.0829225182533264,0.519220173358917,0.0652079433202744
28.614978902,0.106134712696075,0.665823519229889,0.132401138544083
28.634536975,-0.023364907130599,0.53143709897995,0.114075727760792
28.654095933,-0.201732307672501,0.257777541875839,0.0383306667208672
28.673654006,-0.326345145702362,0.0513111688196659,-0.00442864280194044
28.693211298,-0.332453608512878,-0.0366508364677429,0.0505476109683514
28.712769423,-0.238383144140244,-0.113617591559887,0.170273676514626
28.732328381,-0.105218440294266,-0.230900257825851,0.230136707425118
28.751886402,-0.0673459097743034,-0.288319915533066,0.180047228932381
28.771443694,-0.114992000162601,-0.287098199129105,0.0481042228639126
28.791001819,-0.152864530682564,-0.272437870502472,-0.108272679150105
28.810560777,-0.127208948135376,-0.202801287174225,-0.230442121624947
28.830118798,-0.0209215190261602,-0.122169449925423,-0.219446882605553
28.84967609,0.128125205636024,-0.00855186209082604,-0.0777303129434586
28.869234215,0.240521103143692,0.201579600572586,0.0957503095269203
28.888793173,0.211200445890427,0.433701545000076,0.288778036832809
28.908351194,-0.0245866030454636,0.524106919765472,0.423164427280426
28.927908485,-0.282364159822464,0.278546363115311,0.33031564950943
28.94746661,-0.342227190732956,-0.179589092731476,0.106745555996895
28.967025517,-0.205397397279739,-0.406824260950089,-0.105829291045666
28.98658359,-0.00870457384735346,-0.30175855755806,-0.188904508948326
29.006140881,0.107356406748295,0.00122169451788068,-0.0899472609162331
29.025698954,0.134233683347702,0.116060979664326,0.013896775431931
29.045257913,0.111021488904953,-0.0390942245721817,-0.0642916709184647
29.064815933,0.168441131711006,-0.239452123641968,-0.215781792998314
29.084373225,0.26495498418808,-0.189362645149231,-0.263427883386612
29.10393135,0.250294655561447,0.0525328628718853,-0.1608055382967
29.123490256,0.100026234984398,0.219905018806458,-0.027640838176012
29.143048329,-0.124765552580357,0.151490122079849,0.0212269425392151
29.162605621,-0.327566832304001,-0.0500894747674465,-0.0129805039614439
29.182163694,-0.450957983732224,-0.222348406910896,0.00412321882322431
29.201722652,-0.409420371055603,-0.223570093512535,0.126292675733566
29.221280673,-0.146756052970886,-0.0867403075098991,0.282669574022293
29.240837965,0.165997743606567,-0.00610847258940339,0.304660081863403
29.26039609,0.274728566408157,-0.0415376126766205,0.13728791475296
29.279954996,0.155002489686012,-0.0733016729354858,-0.0337493121623993
29.299513017,0.0511584579944611,-0.00733016710728407,-0.100942507386208
29.319070308,0.111021488904953,0.202801287174225,-0.0630699768662453
29.338628433,0.239299416542053,0.322527348995209,0.0566560849547386
29.35818734,0.241742804646492,0.166150450706482,0.161721810698509
29.37774536,0.0658187940716744,-0.0867403075098991,0.177603840827942
29.397302652,-0.000152711814735085,-0.229678571224213,0.131179451942444
29.416860777,0.148894011974335,-0.276102960109711,0.0700947195291519
29.436419683,0.359025478363037,-0.245560601353645,0.0236703306436539
29.455977704,0.50685054063797,-0.136829793453217,0.087198443710804
29.475534996,0.483638316392899,-0.00366508355364203,0.228915005922318
29.495093121,0.277171939611435,0.0488677807152271,0.303438365459442
29.514652027,-0.0148130459710956,-0.00610847258940339,0.26800924539566
29.534210048,-0.13820418715477,-0.194249421358109,0.20448112487793
29.55376734,0.0572669319808483,-0.441031724214554,0.0725381150841713
29.573325413,0.379794269800186,-0.381168693304062,-0.0251974500715733
29.592884371,0.494633555412293,-0.0574196428060532,-0.0142021989449859
29.612442392,0.238077715039253,0.232121959328651,0.0383306667208672
29.631999683,-0.144312664866447,0.280989736318588,0.0163401644676924
29.651557756,-0.272590577602387,0.163707062602043,-0.0423011742532253
29.671116663,-0.0563506595790386,0.169815540313721,-0.0264191441237927
29.690674683,0.128125205636024,0.371395140886307,0.136066228151321
29.710231975,0.0132859274744987,0.443475097417831,0.271674305200577
29.729790048,-0.243269920349121,0.23334364593029,0.233801782131195
29.749349006,-0.430189192295074,0.00855186209082604,0.0835333615541458
29.768907027,-0.378878027200699,-0.0354291424155235,0.00778830237686634
29.788464319,-0.143090963363647,0.0354291424155235,0.0200052484869957
29.808022392,0.0560452342033386,0.0781884491443634,0.0114533863961697
29.827581298,0.0914743766188622,-0.0733016729354858,-0.0178672820329666
29.847139319,0.0548235401511192,-0.298093467950821,-0.0178672820329666
29.86669661,0.101247936487198,-0.394607335329056,-0.0142021989449859
29.886254683,0.186766549944878,-0.245560601353645,-0.0068720318377018
29.90581359,0.207535356283188,-0.0525328628718853,0.0126750804483891
29.92537161,0.122016742825508,-0.00488677807152271,0.0261137206107378
29.944928902,-0.0209215190261602,-0.113617591559887,0.0212269425392151
29.964486975,-0.0795628577470779,-0.169815540313721,0.0212269425392151
29.984045933,-0.0697892978787422,-0.0904053971171379,0.0456608310341835
30.003603954,-0.057572353631258,0.00610847258940339,0.0774248912930489
30.023161194,-0.0221432130783796,0.157598599791527,0.0969720035791397
30.042719267,0.103691324591637,0.290763288736343,0.153169944882393
30.062278173,0.344365149736404,0.23578704893589,0.205702811479568
30.081836194,0.483638316392899,0.101400643587112,0.122627586126328
30.101393485,0.388346135616303,0.0488677807152271,-0.0716218426823616
30.120951558,0.196540102362633,0.174702316522598,-0.11682453751564
30.140510465,0.034054733812809,0.185697570443153,0.0468825288116932
30.160068485,-0.0148130459710956,0.0965138673782349,0.13850961625576
30.179625777,-0.134539112448692,0.0586413368582726,0.081089973449707
30.19918385,-0.425302416086197,0.195471122860909,0.0285571087151766
30.218742756,-0.738056182861328,0.285876512527466,0.0517693050205708
30.238300777,-0.734391093254089,-0.0647498071193695,0.0688730254769325
30.257858069,-0.215170949697495,-0.409267663955689,0.0297788046300411
30.277416142,0.37612920999527,-0.201579600572586,0.0371089726686478
30.296975048,0.570378601551056,0.188140958547592,0.167830288410187
30.316533069,0.330926507711411,0.161263674497604,0.269230931997299
30.336090308,-0.0636808276176453,-0.160041987895966,0.231358394026756
30.355648381,-0.271368891000748,-0.372616827487946,0.127514362335205
30.375207288,-0.205397397279739,-0.382390379905701,0.0517693050205708
30.394765308,-0.0123696569353342,-0.271216183900833,0.0358872748911381
30.4143226,0.100026234984398,-0.160041987895966,0.0688730254769325
30.433880673,0.0389415137469769,-0.1270562261343,0.103080473840237
30.453439579,-0.156529605388641,-0.151490122079849,0.0994153916835785
30.4729976,-0.277477353811264,-0.210131451487541,0.057877779006958
30.49255484,-0.218836024403572,-0.189362645149231,0.0187835525721312
30.512112913,-0.057572353631258,-0.0867403075098991,0.00900999736040831
30.531671819,0.0890309885144234,0.0146603342145681,0.0224486365914345
30.55122984,0.151337414979935,0.131943002343178,0.0529909990727901
30.570787079,0.104913018643856,0.169815540313721,0.105523861944675
30.590345152,-0.0502421855926514,0.0329857505857945,0.128736063838005
30.609904058,-0.244491621851921,-0.138051480054855,0.107967250049114
30.629462079,-0.265260428190231,-0.202801287174225,0.0896418318152428
30.649019319,-0.248156696557999,-0.304201930761337,0.0994153916835785
30.668577392,-0.389873266220093,-0.576639831066132,0.100637085735798
30.688136298,-0.690410137176514,-0.987129151821137,0.0261137206107378
30.707694319,-0.794254124164581,-1.11296367645264,-0.0606265887618065
30.727251558,-0.454623073339462,-0.568087935447693,0.00167983002029359
30.746809631,0.352917015552521,0.174702316522598,0.243575349450111
30.766368538,1.03340089321136,0.372616827487946,0.275339394807816
30.785926558,1.00408017635345,0.0574196428060532,0.126292675733566
30.805483798,0.426218688488007,-0.130721315741539,0.0517693050205708
30.825041871,-0.101553358137608,0.0403159186244011,0.0774248912930489
30.844600777,-0.0013744062744081,0.389720559120178,0.0456608310341835
30.864158798,0.446987479925156,0.648719787597656,-0.0410794764757156
30.883716038,0.63268506526947,0.604738771915436,-0.109494373202324
30.90327411,0.426218688488007,0.387277156114578,-0.0801737010478973
30.922833017,-0.00626118434593082,0.260220944881439,-0.0227540601044893
30.942391038,-0.393538355827332,0.206466376781464,-0.00931542087346315
30.961948277,-0.551136910915375,0.138051480054855,-0.0361927002668381
30.98150635,-0.402090221643448,0.0232121963053942,-0.0875038728117943
31.001065256,-0.0649025216698647,-0.00122169451788068,-0.103385895490646
31.020623277,0.206313654780388,0.0806318372488022,-0.0850604772567749
31.040180517,0.26984179019928,0.0806318372488022,-0.0618482865393162
31.05973859,0.148894011974335,0.00122169451788068,-0.0471879504621029
31.079297496,-0.0123696569353342,-0.0806318372488022,-0.0423011742532253
31.098855465,-0.0661242157220841,-0.151490122079849,-0.0386360883712769
31.118412756,-0.000152711814735085,-0.269994497299194,-0.030084228143096
31.137970777,0.103691324591637,-0.355513095855713,-0.0154238929972053
31.157529683,0.125681817531586,-0.221126705408096,0.0481042228639126
31.177087704,-0.00381779531016946,-0.00977355614304543,0.151948258280754
31.196644996,-0.18096350133419,0.0109952501952648,0.236245170235634
31.216203017,-0.279920756816864,-0.00366508355364203,0.299773305654526
31.235761923,-0.24693500995636,0.1282779276371,0.302216678857803
31.255319944,-0.0636808276176453,0.232121959328651,0.264344155788422
31.274877235,0.169662833213806,0.238230437040329,0.252127200365067
31.294435256,0.304049223661423,0.180810794234276,0.236245170235634
31.313994163,0.271063476800919,0.179589092731476,0.181268930435181
31.333552183,0.0853659063577652,0.196692824363709,0.0786465853452683
31.353109475,-0.100331664085388,0.0525328628718853,-0.027640838176012
31.372667548,-0.0917797982692719,-0.202801287174225,-0.103385895490646
31.392226454,0.0462716780602932,-0.241895511746407,-0.114381149411201
31.411784423,0.119573347270489,0,-0.00320694805122912
31.431341715,-0.0771194696426392,0.282211422920227,0.194707557559013
31.450899788,-0.24571330845356,0.117282673716545,0.241131961345673
31.470458694,0.157445877790451,-0.248003989458084,0.232580095529556
31.490016715,0.850146651268005,-0.190584346652031,0.180047228932381
31.509574006,1.06272149085999,0.228456869721413,0.0933069214224815
31.529132027,0.732864022254944,0.392163932323456,0.0334438867866993
31.548690985,0.206313654780388,0.0439810007810593,-0.0471879504621029
31.568249006,-0.248156696557999,-0.367730051279068,-0.148588597774506
31.587806246,-0.398425132036209,-0.503338158130646,-0.185239434242249
31.607364319,-0.222501114010811,-0.36039987206459,-0.157140463590622
31.626923277,0.0829225182533264,-0.133164703845978,-0.0875038728117943
31.646481298,0.195318415760994,-0.0146603342145681,-0.00442864280194044
31.666038538,0.0132859274744987,-0.0586413368582726,0.0212269425392151
31.68559661,-0.33367532491684,-0.0806318372488022,0.00167983002029359
31.705155569,-0.580457627773285,0.0513111688196659,-0.0178672820329666
31.72471359,-0.575570821762085,0.204022988677025,-0.0569615066051483
31.744270881,-0.420415639877319,0.296871781349182,-0.0997208133339882
31.763828954,-0.26892551779747,0.274881273508072,-0.108272679150105
31.78338786,-0.189515367150307,0.153933510184288,-0.0984991192817688
31.802945881,-0.202954009175301,0.0329857505857945,-0.147366896271706
31.822503173,-0.235939756035805,-0.119726061820984,-0.260984480381012
31.842061246,-0.150421142578125,-0.245560601353645,-0.352611571550369
31.861620204,0.0316113457083702,-0.197914510965347,-0.328177690505981
31.881178225,0.208757057785988,-0.0476460866630077,-0.187682822346687
31.900735517,0.302827537059784,0.0195471122860909,-0.0532964244484901
31.920293642,0.212422132492065,0.0158820282667875,-0.0508530326187611
31.939852548,0.0291679557412863,-0.0342074483633041,-0.132706567645073
31.959410569,-0.0771194696426392,-0.0965138673782349,-0.208451628684998
31.97896786,-0.0783411636948586,-0.025655584409833,-0.225555345416069
31.998525985,-0.145534366369247,0.199136212468147,-0.186461120843887
32.018084944,-0.22494450211525,0.357956498861313,-0.158362150192261
32.037642965,-0.233496367931366,0.456913739442825,-0.184017732739449
32.057200256,-0.108883522450924,0.422706305980682,-0.215781792998314
32.076758329,0.273506850004196,0.1282779276371,-0.195012986660004
32.096317288,0.743859231472015,-0.00488677807152271,-0.184017732739449
32.11587536,0.903901219367981,0.135608091950417,-0.191347897052765
32.135432652,0.674222648143768,0.263886004686356,-0.175465881824493
32.154990725,0.123238436877728,0.2565558552742,-0.122933007776737
32.174549683,-0.413085460662842,0.0952921733260155,-0.0936123430728912
32.194107756,-0.639098942279816,-0.0806318372488022,-0.126598089933395
32.213665048,-0.520594596862793,-0.0965138673782349,-0.170579090714455
32.233223173,-0.24571330845356,-0.0244338903576136,-0.187682822346687
32.252782079,-0.057572353631258,-0.0293206684291363,-0.20356485247612
32.272340152,-0.0306950751692057,-0.124612838029861,-0.256097704172134
32.291897496,-0.0649025216698647,-0.257777541875839,-0.297635316848755
32.311455569,-0.0978882759809494,-0.392163932323456,-0.269536346197128
32.331014527,-0.13820418715477,-0.40804597735405,-0.197456374764442
32.3505726,-0.173633337020874,-0.34329617023468,-0.199899762868881
32.370129892,-0.205397397279739,-0.310310393571854,-0.30740886926651
32.389688017,-0.188293665647507,-0.245560601353645,-0.400257676839829
32.409246975,-0.130874022841454,-0.0671931952238083,-0.423469871282578
32.428805048,-0.0697892978787422,0.118504367768765,-0.441795289516449
32.44836234,0.00473406631499529,0.161263674497604,-0.497993230819702
32.467920465,0.119573347270489,0.0904053971171379,-0.56396472454071
32.487479423,0.28938889503479,0.116060979664326,-0.610389113426209
32.507037496,0.324818015098572,0.201579600572586,-0.539530813694
32.52659484,0.130568608641624,0.195471122860909,-0.39414918422699
32.546152913,-0.111326910555363,0.136829793453217,-0.300078719854355
32.565711923,-0.13942588865757,0.114839285612106,-0.340394645929337
32.585269944,-0.124765552580357,0.153933510184288,-0.362385123968124
32.604827288,-0.457066476345062,0.266329407691956,-0.251210927963257
32.624385413,-1.00316393375397,0.245560601353645,-0.132706567645073
32.643944371,-1.10089945793152,0.118504367768765,-0.206008240580559
32.663502444,-0.399646818637848,0.0415376126766205,-0.483332902193069
32.683059788,0.636350154876709,0.0549762547016144,-0.661700308322907
32.702617913,1.2129899263382,0.119726061820984,-0.571294903755188
32.722176871,1.20321643352509,0.100178949534893,-0.400257676839829
32.741734944,0.78173178434372,0.00855186209082604,-0.296413630247116
32.761292288,0.24662958085537,-0.183254182338715,-0.285418391227722
32.780850413,-0.0783411636948586,-0.316418886184692,-0.281753301620483
32.800409371,-0.0868930220603943,-0.257777541875839,-0.219446882605553
32.819967444,0.0694838762283325,-0.136829793453217,-0.113159455358982
32.839524788,0.167219430208206,-0.0476460866630077,-0.0447445623576641
32.859082913,0.175771296024323,-0.0244338903576136,-0.0606265887618065
32.878641923,0.158667579293251,-0.0842969194054604,-0.132706567645073
32.898199996,0.126903519034386,-0.101400643587112,-0.192569598555565
32.91775734,0.0230594836175442,-0.0293206684291363,-0.210895016789436
32.937315465,-0.110105216503143,0.0708582848310471,-0.20234315097332
32.956874423,-0.229831278324127,0.141716569662094,-0.226777046918869
32.976432496,-0.35077902674675,0.17103722691536,-0.33184278011322
32.99598984,-0.433854252099991,0.145381644368172,-0.424691557884216
33.015548069,-0.441184431314468,0.0342074483633041,-0.429578334093094
33.035106975,-0.397203415632248,-0.158820286393166,-0.385597318410873
33.054665048,-0.297024488449097,-0.357956498861313,-0.311073958873749
33.074222392,0.0157293174415827,-0.351848006248474,-0.207229927182198
33.093780517,0.421331882476807,-0.144159957766533,-0.072843536734581
33.113339527,0.624133169651032,0.0293206684291363,0.0310004986822605
33.1328976,0.471421360969543,0.0219905003905296,0.107967250049114
33.152454944,0.064597100019455,-0.102622337639332,0.230136707425118
33.172013173,-0.271368891000748,-0.0757450610399246,0.406060725450516
33.191572079,-0.336118698120117,0.293206691741943,0.585649788379669
33.211130204,-0.281142443418503,0.663380146026611,0.622300624847412
33.230687548,-0.229831278324127,0.714691281318665,0.497687816619873
33.250245673,-0.183406889438629,0.365286648273468,0.270452618598938
33.269804631,-0.000152711814735085,-0.174702316522598,-0.0288625322282314
33.289362756,0.327261418104172,-0.494786292314529,-0.238993987441063
33.3089201,0.67055755853653,-0.507003247737885,-0.297635316848755
33.328478225,0.778066694736481,-0.309088706970215,-0.251210927963257
33.348037235,0.384681075811386,-0.1270562261343,-0.246324151754379
33.367595308,-0.454623073339462,-0.102622337639332,-0.357498347759247
33.387152652,-1.31958281993866,-0.134386390447617,-0.454012215137482
33.406710881,-1.56880843639374,-0.276102960109711,-0.395370900630951
33.426269788,-1.02148938179016,-0.386055469512939,-0.217003494501114
33.445827913,-0.146756052970886,-0.118504367768765,-0.0801737010478973
33.465385256,0.401784777641296,0.145381644368172,-0.0410794764757156
33.484943381,0.41522341966629,0.0879620015621185,-0.0984991192817688
33.504502392,0.100026234984398,-0.0610847249627113,-0.207229927182198
33.524060465,-0.108883522450924,-0.0586413368582726,-0.238993987441063
33.543617808,0.00717745535075665,0.167372152209282,-0.107050985097885
33.563176038,0.26984179019928,0.331079214811325,0.0114533863961697
33.582734996,0.426218688488007,0.265107721090317,0.00290152453817427
33.602293069,0.404228180646896,0.0109952501952648,-0.0911689549684525
33.621850413,0.231969252228737,-0.122169449925423,-0.138815045356751
33.641408642,0.113464877009392,-0.0525328628718853,-0.11682453751564
33.660967548,0.122016742825508,0.0305423624813557,-0.0911689549684525
33.680525673,0.123238436877728,0.0403159186244011,-0.0740652307868004
33.700083017,0.0597103200852871,0.0500894747674465,-0.072843536734581
33.719641142,-0.0319167710840702,0.0965138673782349,-0.0899472609162331
33.739200152,-0.122322164475918,0.0842969194054604,-0.131484866142273
33.758758225,-0.189515367150307,-0.0171037241816521,-0.209673315286636
33.778315621,-0.108883522450924,-0.0513111688196659,-0.273201435804367
33.797873746,-0.00626118434593082,0.10628741979599,-0.313517361879349
33.817432756,0.0242811776697636,0.232121959328651,-0.350168198347092
33.836990829,-0.0416903272271156,0.1282779276371,-0.378267168998718
33.856548225,-0.125987246632576,-0.0232121963053942,-0.367271900177002
33.87610635,-0.00626118434593082,-0.0403159186244011,-0.308630585670471
33.89566536,0.301605820655823,-0.0219905003905296,-0.237772300839424
33.915223433,0.515402376651764,-0.0195471122860909,-0.197456374764442
33.934780777,0.448209166526794,-0.0500894747674465,-0.168135702610016
33.954339006,0.167219430208206,-0.114839285612106,-0.141258433461189
33.973897913,-0.0905581042170525,-0.246782287955284,-0.126598089933395
33.993456038,-0.0734543800354004,-0.345739543437958,-0.140036731958389
34.013013381,0.087809294462204,-0.315197199583054,-0.165692314505577
34.03257161,0.181879773736,-0.199136212468147,-0.174244180321693
34.052130517,0.153780803084373,-0.0952921733260155,-0.143701821565628
34.071688642,0.0108425384387374,-0.0525328628718853,-0.0972774252295494
34.091245985,-0.132095724344254,-0.0635281130671501,-0.100942507386208
34.11080411,-0.156529605388641,-0.0342074483633041,-0.159583851695061
34.130363121,-0.114992000162601,0.0586413368582726,-0.191347897052765
